id,trial,label,FC,TC,response,RT
106,0,200,0.037309746443590024,0.1,1,0.2991407359986624
106,1,400,0.07461949288718005,0.1,1,0.20401929400031804
106,2,800,0.1492389857743601,0.1,1,0.14911165100056678
106,3,100_null,0.018654873221795012,0.1,0,99
106,4,000,0,0.1,1,0.20785183400221285
106,5,800,0.1492389857743601,0.07943282347242815,1,0.16103032400133088
106,6,400,0.07461949288718005,0.07943282347242815,1,0.1969173729994509
106,7,100,0.018654873221795012,0.1,1,0.20593391999864252
106,8,000,0,0.07943282347242815,1,0.23830538299807813
106,9,200,0.037309746443590024,0.07943282347242815,1,0.14034621799874003
106,10,400,0.07461949288718005,0.06309573444801932,1,0.05346395800006576
106,11,000,0,0.06309573444801932,1,0.18055585000183783
106,12,800,0.1492389857743601,0.06309573444801932,1,0.21309120500154677
106,13,200,0.037309746443590024,0.06309573444801932,1,0.14998687900151708
106,14,100,0.018654873221795012,0.07943282347242815,1,0.1343569300006493
106,15,800_null,0.1492389857743601,0.05011872336272722,0,0.2794311950019619
106,16,000,0,0.05011872336272722,1,0.21079366100093466
106,17,200,0.037309746443590024,0.05011872336272722,1,0.21811782899749232
106,18,100,0.018654873221795012,0.06309573444801932,1,0.13945752400104539
106,19,400,0.07461949288718005,0.05011872336272722,1,0.1780145820011967
106,20,000,0,0.03981071705534971,1,0.19499688499854528
106,21,200,0.037309746443590024,0.03981071705534971,1,0.1854904890024045
106,22,400,0.07461949288718005,0.03981071705534971,1,0.16133791200263659
106,23,100,0.018654873221795012,0.05011872336272722,1,0.24294284200004768
106,24,800,0.1492389857743601,0.05011872336272722,1,0.480905945001723
106,25,100,0.018654873221795012,0.03981071705534971,1,0.20887565099837957
106,26,200,0.037309746443590024,0.031622776601683784,1,0.1520882939985313
106,27,400,0.07461949288718005,0.031622776601683784,1,0.13721558099859976
106,28,000,0,0.031622776601683784,1,0.09066312600043602
106,29,800,0.1492389857743601,0.03981071705534971,1,0.14678785200158018
106,30,400,0.07461949288718005,0.02511886431509579,1,0.07476667499940959
106,31,000,0,0.02511886431509579,1,0.32516851499894983
106,32,200,0.037309746443590024,0.02511886431509579,1,0.22370183500243002
106,33,100,0.018654873221795012,0.031622776601683784,1,0.20131420200050343
106,34,800,0.1492389857743601,0.031622776601683784,1,0.11944190000212984
106,35,400,0.07461949288718005,0.01995262314968879,1,0.13669593000304303
106,36,800,0.1492389857743601,0.02511886431509579,1,0.12668666900208336
106,37,100_null,0.018654873221795012,0.02511886431509579,0,0.47083895400282927
106,38,000,0,0.01995262314968879,1,0.4869756589978351
106,39,200,0.037309746443590024,0.01995262314968879,1,0.44507960899863974
106,40,000,0,0.015848931924611127,0,0.4222300239998731
106,41,800,0.1492389857743601,0.01995262314968879,1,0.5895739029983815
106,42,200,0.037309746443590024,0.015848931924611127,1,0.3655586579989176
106,43,100,0.018654873221795012,0.02511886431509579,1,0.4152190929999051
106,44,400,0.07461949288718005,0.015848931924611127,1,0.44691400500232703
106,45,100,0.018654873221795012,0.01995262314968879,1,0.5281097709994356
106,46,400,0.07461949288718005,0.012589254117941666,1,0.5372230970024248
106,47,800,0.1492389857743601,0.015848931924611127,1,0.48264003400254296
106,48,200,0.037309746443590024,0.012589254117941666,0,0.5312164009992557
106,49,000,0,0.01995262314968879,1,0.49761643699821434
106,50,000,0,0.015848931924611127,0,0.4826128780005092
106,51,100,0.018654873221795012,0.015848931924611127,1,0.5150120559992502
106,52,400,0.07461949288718005,0.009999999999999995,0,0.4731427930018981
106,53,800_null,0.1492389857743601,0.012589254117941666,0,0.4586781689977215
106,54,200,0.037309746443590024,0.015848931924611127,1,0.4077976559965464
106,55,000,0,0.01995262314968879,1,0.5686680750004598
106,56,800,0.1492389857743601,0.012589254117941666,1,0.5128796159988269
106,57,400,0.07461949288718005,0.012589254117941666,0,0.448946063999756
106,58,200,0.037309746443590024,0.012589254117941666,1,0.6104887170004076
106,59,100,0.018654873221795012,0.012589254117941666,1,0.5384848620014964
106,60,800,0.1492389857743601,0.009999999999999995,0,0.5396480950003024
106,61,000,0,0.015848931924611127,1,0.44360868299918366
106,62,100,0.018654873221795012,0.009999999999999995,0,0.4614755120019254
106,63,400,0.07461949288718005,0.015848931924611127,1,0.45469254899944644
106,64,200,0.037309746443590024,0.009999999999999995,0,0.42909960899851285
106,65,200,0.037309746443590024,0.012589254117941666,1,0.41444539700023597
106,66,000,0,0.012589254117941666,0,0.7825814520001586
106,67,800,0.1492389857743601,0.012589254117941666,1,0.5089448010003252
106,68,400,0.07461949288718005,0.012589254117941666,1,0.44478199500008486
106,69,100,0.018654873221795012,0.012589254117941666,1,0.25064269799986505
106,70,100,0.018654873221795012,0.009999999999999995,1,0.5559406140018837
106,71,200_null,0.037309746443590024,0.009999999999999995,0,0.3562537270008761
106,72,400,0.07461949288718005,0.009999999999999995,0,0.46847986499778926
106,73,000,0,0.015848931924611127,0,0.5257282810016477
106,74,800,0.1492389857743601,0.009999999999999995,0,0.5975723070005188
106,75,400,0.07461949288718005,0.012589254117941666,1,0.6148859929999162
106,76,100_null,0.018654873221795012,0.00794328234724281,0,0.695399248998001
106,77,000,0,0.01995262314968879,0,0.6647158440027852
106,78,200,0.037309746443590024,0.009999999999999995,1,0.634253981999791
106,79,800,0.1492389857743601,0.012589254117941666,0,0.4807593559999077
106,80,400,0.07461949288718005,0.009999999999999995,0,0.529028492001089
106,81,200,0.037309746443590024,0.00794328234724281,0,1.138018177000049
106,82,100,0.018654873221795012,0.00794328234724281,0,0.6642358399985824
106,83,000,0,0.025118864315095794,1,0.2961924060000456
106,84,800,0.1492389857743601,0.015848931924611127,0,0.42235650200018426
106,85,800_null,0.1492389857743601,0.01995262314968879,0,0.26221680600065156
106,86,100,0.018654873221795012,0.009999999999999995,0,0.48752883699853555
106,87,200,0.037309746443590024,0.009999999999999995,0,0.34397429399905377
106,88,400,0.07461949288718005,0.012589254117941666,0,0.2572099220014934
106,89,000,0,0.01995262314968879,0,0.4571573700013687
106,90,800_null,0.1492389857743601,0.01995262314968879,0,0.4422395410001627
106,91,200,0.037309746443590024,0.012589254117941666,1,0.5146538010012591
106,92,400,0.07461949288718005,0.015848931924611127,1,0.40480950600249344
106,93,000,0,0.025118864315095794,0,0.8860510559970862
106,94,100,0.018654873221795012,0.012589254117941666,0,1.2232114719990932
106,95,000,0,0.031622776601683784,1,0.5170020019977528
106,96,100,0.018654873221795012,0.015848931924611127,1,0.26228354799968656
106,97,400,0.07461949288718005,0.012589254117941666,0,0.3405422739997448
106,98,800,0.1492389857743601,0.01995262314968879,1,0.380787316000351
106,99,200,0.037309746443590024,0.009999999999999995,1,0.31354096200084314
106,100,100,0.018654873221795012,0.012589254117941666,0,0.47491512700071326
106,101,200,0.037309746443590024,0.00794328234724281,1,0.48295276000135345
106,102,400,0.07461949288718005,0.015848931924611127,1,0.6279426280016196
106,103,800,0.1492389857743601,0.015848931924611127,1,0.5803070359979756
106,104,000,0,0.02511886431509579,1,0.42928653999842936
106,105,400_null,0.07461949288718005,0.012589254117941666,0,0.40552282499993453
106,106,100,0.018654873221795012,0.015848931924611127,1,0.47079177199702826
106,107,000,0,0.01995262314968879,0,0.5274480270018103
106,108,800,0.1492389857743601,0.012589254117941666,0,0.46523926599911647
106,109,200_null,0.037309746443590024,0.0063095734448019285,0,0.38746083899968653
106,110,000,0,0.025118864315095794,1,0.38426093199814204
106,111,100,0.018654873221795012,0.012589254117941666,0,0.44167820000075153
106,112,200_null,0.037309746443590024,0.0063095734448019285,1,0.3825849710010516
106,113,400,0.07461949288718005,0.012589254117941666,0,0.3680553220001457
106,114,800,0.1492389857743601,0.015848931924611127,1,0.5438206250000803
106,115,100,0.018654873221795012,0.015848931924611127,1,0.5741461100005836
106,116,000,0,0.01995262314968879,1,0.6956280350023007
106,117,800,0.1492389857743601,0.012589254117941666,0,0.5677626319993578
106,118,200,0.037309746443590024,0.0063095734448019285,0,0.4804452909993415
106,119,400,0.07461949288718005,0.015848931924611127,1,0.6659584710032505
106,120,100,0.018654873221795012,0.012589254117941666,0,1.2017057150005712
106,121,000,0,0.015848931924611127,0,0.35450231899812934
106,122,200,0.037309746443590024,0.00794328234724281,0,0.6847176459996263
106,123,400,0.07461949288718005,0.012589254117941666,0,0.8828979210011312
106,124,800,0.1492389857743601,0.015848931924611127,0,0.6838545700011309
106,125,800,0.1492389857743601,0.01995262314968879,0,0.4258925480025937
106,126,100,0.018654873221795012,0.015848931924611127,1,0.42586719899918535
106,127,400,0.07461949288718005,0.015848931924611127,1,0.4591636350014596
106,128,200,0.037309746443590024,0.009999999999999995,0,0.6483125100021425
106,129,000,0,0.01995262314968879,0,0.49727606200031005
106,130,800_null,0.1492389857743601,0.025118864315095794,0,0.3853266389996861
106,131,200,0.037309746443590024,0.012589254117941666,0,0.6580096679972485
106,132,400,0.07461949288718005,0.012589254117941666,0,0.5708309599976928
106,133,100,0.018654873221795012,0.012589254117941666,0,0.5949073740011954
106,134,000,0,0.025118864315095794,1,0.47603367699775845
106,135,100,0.018654873221795012,0.015848931924611127,1,0.39799753699844587
106,136,800,0.1492389857743601,0.025118864315095794,1,0.3830614289981895
106,137,000,0,0.01995262314968879,0,0.6801621699996758
106,138,400,0.07461949288718005,0.015848931924611127,1,0.479331058999378
106,139,200,0.037309746443590024,0.015848931924611127,1,0.6081160639987502
106,140,200,0.037309746443590024,0.012589254117941666,1,0.606301166000776
106,141,100,0.018654873221795012,0.012589254117941666,0,0.5347164499980863
106,142,800,0.1492389857743601,0.01995262314968879,1,0.5276630090011167
106,143,000,0,0.025118864315095794,1,0.34074721399883856
106,144,400,0.07461949288718005,0.012589254117941666,0,0.5181087540004228
106,145,400,0.07461949288718005,0.015848931924611127,1,0.6063928690018656
106,146,800,0.1492389857743601,0.015848931924611127,1,0.4233213480001723
106,147,000,0,0.01995262314968879,1,0.6231915669995942
106,148,200,0.037309746443590024,0.009999999999999995,1,0.8323469220013067
106,149,100,0.018654873221795012,0.015848931924611127,1,0.7448391360012465
106,150,200,0.037309746443590024,0.00794328234724281,0,0.7066114980007114
106,151,400,0.07461949288718005,0.012589254117941666,1,0.5557850779987348
106,152,000,0,0.015848931924611127,0,0.8042457769988687
106,153,100,0.018654873221795012,0.012589254117941666,0,0.6423509220003325
106,154,800,0.1492389857743601,0.012589254117941666,0,0.5949885420013743
106,155,100,0.018654873221795012,0.015848931924611127,1,0.7876460359984776
106,156,200,0.037309746443590024,0.009999999999999995,1,0.5368860959970334
106,157,400,0.07461949288718005,0.009999999999999995,1,0.5623106419989199
106,158,000,0,0.01995262314968879,1,0.5674666390004859
106,159,800,0.1492389857743601,0.015848931924611127,0,0.560346155998559
106,160,000,0,0.015848931924611127,0,0.6406490379995375
106,161,200,0.037309746443590024,0.00794328234724281,1,0.5857287220023863
106,162,400,0.07461949288718005,0.00794328234724281,0,0.6257399009991786
106,163,800,0.1492389857743601,0.01995262314968879,1,0.5073128869989887
106,164,100,0.018654873221795012,0.012589254117941666,1,0.5471633699999074
106,165,000,0,0.01995262314968879,0,0.6919495260008262
106,166,800,0.1492389857743601,0.015848931924611127,1,0.6775965030028601
106,167,200,0.037309746443590024,0.0063095734448019285,0,0.5584333390033862
106,168,400,0.07461949288718005,0.009999999999999995,0,0.5247913320017688
106,169,100,0.018654873221795012,0.009999999999999995,0,0.9496183709998149
106,170,200,0.037309746443590024,0.00794328234724281,1,0.550112277000153
106,171,000,0,0.025118864315095794,1,0.5483507290009584
106,172,800,0.1492389857743601,0.012589254117941666,0,0.6286189439997543
106,173,400,0.07461949288718005,0.012589254117941666,0,0.47442842600139556
106,174,100,0.018654873221795012,0.012589254117941666,0,0.451469931002066
106,175,200,0.037309746443590024,0.0063095734448019285,1,0.5238034540016088
106,176,400,0.07461949288718005,0.015848931924611127,1,0.3727086440012499
106,177,000,0,0.01995262314968879,0,0.4773451200017007
106,178,800_null,0.1492389857743601,0.015848931924611127,0,0.6143866839993279
106,179,100,0.018654873221795012,0.015848931924611127,1,0.5665873119978642
106,180,000,0,0.025118864315095794,1,0.49541401799797313
106,181,400,0.07461949288718005,0.012589254117941666,0,0.5281146009983786
106,182,200,0.037309746443590024,0.005011872336272719,0,0.5298053219994472
106,183,100,0.018654873221795012,0.012589254117941666,0,0.8002957229982712
106,184,800,0.1492389857743601,0.015848931924611127,1,0.664272644000448
106,185,400_null,0.07461949288718005,0.015848931924611127,0,0.5616578739973193
106,186,800,0.1492389857743601,0.012589254117941666,0,0.4877650390008057
106,187,000,0,0.01995262314968879,0,0.5756672759998764
106,188,100,0.018654873221795012,0.015848931924611127,1,0.6139723369997228
106,189,200,0.037309746443590024,0.0063095734448019285,0,0.5349469870016037
106,190,000,0,0.025118864315095794,0,0.6072472259984352
106,191,400,0.07461949288718005,0.015848931924611127,1,0.4566009509981086
106,192,800,0.1492389857743601,0.015848931924611127,1,0.47251580599913723
106,193,200,0.037309746443590024,0.00794328234724281,0,0.537583582001389
106,194,100,0.018654873221795012,0.012589254117941666,0,0.4258004069997696
106,195,200,0.037309746443590024,0.009999999999999995,1,0.4111662899995281
106,196,100,0.018654873221795012,0.015848931924611127,0,0.5086626400006935
106,197,800,0.1492389857743601,0.012589254117941666,0,0.550491277997935
106,198,000,0,0.031622776601683784,1,0.39948521699989215
106,199,400,0.07461949288718005,0.012589254117941666,0,0.3967376529981266
106,200,800_null,0.1492389857743601,0.015848931924611127,0,0.3655502450019412
106,201,000,0,0.02511886431509579,1,0.35638402699987637
106,202,100,0.018654873221795012,0.01995262314968879,0,0.4760914340004092
106,203,200,0.037309746443590024,0.00794328234724281,1,0.501287487000809
106,204,400,0.07461949288718005,0.015848931924611127,0,0.6357446059992071
106,205,800,0.1492389857743601,0.015848931924611127,1,0.47554985399983707
106,206,000,0,0.01995262314968879,1,0.5884787940012757
106,207,400,0.07461949288718005,0.01995262314968879,1,0.4608372340007918
106,208,100,0.018654873221795012,0.025118864315095794,1,0.4621722949996183
106,209,200,0.037309746443590024,0.0063095734448019285,0,0.47029495799870347
106,210,400,0.07461949288718005,0.015848931924611127,1,0.44737546399846906
106,211,800_null,0.1492389857743601,0.012589254117941666,0,0.3686527789977845
106,212,000,0,0.015848931924611127,1,0.37760527200225624
106,213,200,0.037309746443590024,0.00794328234724281,0,0.43505811800059746
106,214,100_null,0.018654873221795012,0.01995262314968879,0,0.5434548090015596
106,215,100,0.018654873221795012,0.01995262314968879,0,1.1841237299995555
106,216,800,0.1492389857743601,0.012589254117941666,0,0.5106267580013082
106,217,200,0.037309746443590024,0.009999999999999995,0,0.7107390890014358
106,218,400,0.07461949288718005,0.012589254117941666,1,0.5359203190018889
106,219,000,0,0.012589254117941666,0,0.4938011930025823
106,220,400,0.07461949288718005,0.009999999999999995,1,0.9349629130010726
106,221,100,0.018654873221795012,0.025118864315095794,1,0.4953084029984893
106,222,200,0.037309746443590024,0.012589254117941666,0,0.5447125089995097
106,223,000,0,0.015848931924611127,1,0.5765828419971513
106,224,800,0.1492389857743601,0.015848931924611127,1,0.7455219859984936
106,225,100,0.018654873221795012,0.01995262314968879,1,0.547233500998118
106,226,800_null,0.1492389857743601,0.012589254117941666,0,0.524238409998361
106,227,200_null,0.037309746443590024,0.015848931924611127,0,0.47727762299837195
106,228,400,0.07461949288718005,0.00794328234724281,1,0.5905661320030049
106,229,000_null,0,0.012589254117941666,0,0.4756594700011192
106,230,200,0.037309746443590024,0.015848931924611127,0,0.7806286310005817
106,231,100,0.018654873221795012,0.015848931924611127,0,0.49091856199811446
106,232,800,0.1492389857743601,0.012589254117941666,0,0.4027421869977843
106,233,000,0,0.012589254117941666,0,0.5241566369986685
106,234,400,0.07461949288718005,0.0063095734448019285,0,0.4350504539979738
106,235,100,0.018654873221795012,0.01995262314968879,0,0.7472218910006632
106,236,200,0.037309746443590024,0.01995262314968879,0,0.5324554910002917
106,237,400,0.07461949288718005,0.00794328234724281,1,0.796442863997072
106,238,800,0.1492389857743601,0.015848931924611127,0,0.9409856909987866
106,239,000,0,0.015848931924611127,1,0.7198612680003862
106,240,100,0.018654873221795012,0.025118864315095794,0,0.6755562469988945
106,241,000,0,0.012589254117941666,0,0.29998865999732516
106,242,800,0.1492389857743601,0.01995262314968879,1,0.5171408169990173
106,243,200,0.037309746443590024,0.025118864315095794,1,0.36969784800021444
106,244,400,0.07461949288718005,0.0063095734448019285,0,0.3234212640018086
106,245,400,0.07461949288718005,0.00794328234724281,0,0.39443784299874096
106,246,200,0.037309746443590024,0.01995262314968879,1,0.43475243099965155
106,247,000,0,0.015848931924611127,0,0.34775050900134374
106,248,100,0.018654873221795012,0.031622776601683784,1,0.3328145490013412
106,249,800,0.1492389857743601,0.015848931924611127,0,0.5167787360005605
106,250,200,0.037309746443590024,0.015848931924611127,1,0.4231422000011662
106,251,000,0,0.01995262314968879,0,0.384002024999063
106,252,800,0.1492389857743601,0.01995262314968879,1,0.3775536209977872
106,253,100,0.018654873221795012,0.02511886431509579,1,0.5443787340009294
106,254,400,0.07461949288718005,0.009999999999999995,1,0.3930405270002666
106,255,200,0.037309746443590024,0.012589254117941666,0,0.5112957719975384
106,256,000,0,0.025118864315095794,1,0.4793827550020069
106,257,400,0.07461949288718005,0.00794328234724281,0,0.41635629599841195
106,258,100,0.018654873221795012,0.01995262314968879,1,0.4866665129993635
106,259,800,0.1492389857743601,0.015848931924611127,1,0.4070014450007875
106,260,400,0.07461949288718005,0.009999999999999995,0,0.5917930979994708
106,261,200,0.037309746443590024,0.015848931924611127,1,0.6713046180011588
106,262,800,0.1492389857743601,0.012589254117941666,0,0.8001480009988882
106,263,000,0,0.01995262314968879,0,0.6720233949999965
106,264,100,0.018654873221795012,0.015848931924611127,1,0.6497834590009006
106,265,000,0,0.025118864315095794,1,0.5698171910007659
106,266,200,0.037309746443590024,0.012589254117941666,0,0.6278853259973403
106,267,800,0.1492389857743601,0.015848931924611127,1,0.541265107000072
106,268,100_null,0.018654873221795012,0.012589254117941666,0,0.40321800900346716
106,269,400,0.07461949288718005,0.012589254117941666,0,0.6283864710021589
106,270,800_null,0.1492389857743601,0.012589254117941666,0,0.5164847729975008
106,271,200,0.037309746443590024,0.015848931924611127,0,0.5125863150024088
106,272,000_null,0,0.01995262314968879,0,0.6420352459972491
106,273,100,0.018654873221795012,0.012589254117941666,0,0.6625616720011749
106,274,400,0.07461949288718005,0.015848931924611127,1,0.43223906500134035
106,275,000,0,0.01995262314968879,0,0.3682704860002559
106,276,400,0.07461949288718005,0.012589254117941666,0,0.576641653002298
106,277,200,0.037309746443590024,0.01995262314968879,1,0.4339227239979664
106,278,800,0.1492389857743601,0.012589254117941666,0,0.4821228569999221
106,279,100,0.018654873221795012,0.015848931924611127,0,0.7783164360007504
106,280,200,0.037309746443590024,0.015848931924611127,1,0.4749592999978631
106,281,000,0,0.025118864315095794,1,0.3319221949968778
106,282,400_null,0.07461949288718005,0.015848931924611127,0,0.39064383000004455
106,283,800,0.1492389857743601,0.015848931924611127,1,0.6853350579986
106,284,100,0.018654873221795012,0.01995262314968879,1,0.35793872399881366
106,285,200,0.037309746443590024,0.012589254117941666,0,0.6152824669989059
106,286,400_null,0.07461949288718005,0.015848931924611127,0,0.5090955029991164
106,287,000,0,0.01995262314968879,1,0.3971158269996522
106,288,800,0.1492389857743601,0.012589254117941666,0,0.5148846400006732
106,289,100_null,0.018654873221795012,0.015848931924611127,0,0.5155178339991835
106,290,100,0.018654873221795012,0.015848931924611127,1,0.4927960719978728
106,291,800,0.1492389857743601,0.015848931924611127,1,0.4450872339984926
106,292,200,0.037309746443590024,0.015848931924611127,1,0.4688401779967535
106,293,400,0.07461949288718005,0.015848931924611127,1,0.5504402380029205
106,294,000,0,0.015848931924611127,0,0.5577685620010016
106,295,100,0.018654873221795012,0.012589254117941666,1,0.5756359709994285
106,296,200,0.037309746443590024,0.012589254117941666,1,0.5932234200008679
106,297,800,0.1492389857743601,0.012589254117941666,1,0.7221621009994124
106,298,000,0,0.01995262314968879,0,0.7623185470001772
106,299,400,0.07461949288718005,0.012589254117941666,0,0.5618228450002789
106,300,800,0.1492389857743601,0.009999999999999995,0,0.4914546349973534
106,301,000,0,0.025118864315095794,1,0.36047553699972923
106,302,200,0.037309746443590024,0.009999999999999995,0,0.5296810020008706
106,303,400,0.07461949288718005,0.015848931924611127,1,0.41587253699981375
106,304,100_null,0.018654873221795012,0.009999999999999995,0,0.8802079480010434
106,305,400,0.07461949288718005,0.012589254117941666,0,0.6889934900027583
106,306,000,0,0.01995262314968879,1,0.5771465140023793
106,307,100,0.018654873221795012,0.009999999999999995,1,0.7296396940000704
106,308,800_null,0.1492389857743601,0.012589254117941666,0,0.7376162470027339
106,309,200,0.037309746443590024,0.012589254117941666,0,0.6508015340004931
106,310,800_null,0.1492389857743601,0.012589254117941666,0,0.3949900970001181
106,311,100,0.018654873221795012,0.00794328234724281,0,0.469094109001162
106,312,000,0,0.015848931924611127,0,0.4299304749984003
106,313,200,0.037309746443590024,0.015848931924611127,1,0.5273607339986484
106,314,400_null,0.07461949288718005,0.015848931924611127,0,0.5978010860017093
106,315,100,0.018654873221795012,0.009999999999999995,0,0.5907355189992813
106,316,200_null,0.037309746443590024,0.012589254117941666,0,0.5478715030003514
106,317,800,0.1492389857743601,0.012589254117941666,0,0.45274336699731066
106,318,400,0.07461949288718005,0.015848931924611127,1,0.40540649899776326
106,319,000,0,0.01995262314968879,0,0.45139560899770004
106,320,100,0.018654873221795012,0.012589254117941666,0,0.5085680049996881
106,321,200,0.037309746443590024,0.012589254117941666,1,0.37290527900040615
106,322,400,0.07461949288718005,0.012589254117941666,0,0.7249882119976974
106,323,800,0.1492389857743601,0.015848931924611127,1,0.4777377829996112
106,324,000_null,0,0.025118864315095794,0,0.5833830929987016
106,325,400,0.07461949288718005,0.015848931924611127,0,0.46363109199955943
106,326,200,0.037309746443590024,0.009999999999999995,0,0.6322151729982579
106,327,100,0.018654873221795012,0.015848931924611127,1,0.6428547420000541
106,328,000,0,0.025118864315095794,1,0.5390599149977788
106,329,800,0.1492389857743601,0.012589254117941666,0,0.44113516899960814
106,330,200,0.037309746443590024,0.012589254117941666,1,0.6018344149997574
106,331,800,0.1492389857743601,0.015848931924611127,1,0.551440947001538
106,332,100,0.018654873221795012,0.012589254117941666,0,0.8957182100020873
106,333,000,0,0.01995262314968879,1,0.6568990939995274
106,334,400,0.07461949288718005,0.01995262314968879,1,0.5186305499992159
106,335,800_null,0.1492389857743601,0.012589254117941666,0,0.446878550999827
106,336,200,0.037309746443590024,0.009999999999999995,0,0.6719815230026143
106,337,100,0.018654873221795012,0.015848931924611127,1,0.4325189590017544
106,338,000,0,0.015848931924611127,0,0.4096011260007799
106,339,400,0.07461949288718005,0.015848931924611127,1,0.4026320169978135
106,340,200,0.037309746443590024,0.012589254117941666,0,0.5145848400024988
106,341,000,0,0.01995262314968879,1,0.46760270899903844
106,342,100,0.018654873221795012,0.012589254117941666,0,0.3570227050004178
106,343,800,0.1492389857743601,0.012589254117941666,0,0.6315480690027471
106,344,400,0.07461949288718005,0.012589254117941666,0,0.4373181989976729
106,345,400,0.07461949288718005,0.015848931924611127,1,0.7651260429993272
106,346,200,0.037309746443590024,0.015848931924611127,1,0.4919476040013251
106,347,000,0,0.015848931924611127,0,0.5169320269997115
106,348,100_null,0.018654873221795012,0.015848931924611127,0,0.7169625650021771
106,349,800,0.1492389857743601,0.015848931924611127,1,0.44314605399995344
106,350,800,0.1492389857743601,0.012589254117941666,0,0.44375863499953994
106,351,000,0,0.01995262314968879,0,0.3404536909984017
106,352,400,0.07461949288718005,0.012589254117941666,1,0.3175430219998816
106,353,100,0.018654873221795012,0.015848931924611127,1,0.8140896839977358
106,354,200,0.037309746443590024,0.012589254117941666,0,0.49522824700034107
106,355,000,0,0.025118864315095794,1,0.7354473140003392
106,356,800,0.1492389857743601,0.015848931924611127,0,0.5278693750005914
106,357,400,0.07461949288718005,0.009999999999999995,0,0.5055041800005711
106,358,100,0.018654873221795012,0.012589254117941666,0,99
106,359,200,0.037309746443590024,0.015848931924611127,0,0.7037966050011164
106,360,800,0.1492389857743601,0.01995262314968879,0,0.3716424369995366
106,361,000,0,0.01995262314968879,0,0.27145004400153994
106,362,100,0.018654873221795012,0.015848931924611127,0,0.19698232599694165
106,363,200,0.037309746443590024,0.01995262314968879,1,0.4402820309987874
106,364,400,0.07461949288718005,0.012589254117941666,0,0.45757599199714605
106,365,400,0.07461949288718005,0.015848931924611127,1,0.3656356150022475
106,366,100_null,0.018654873221795012,0.01995262314968879,0,0.3828590070006612
106,367,200,0.037309746443590024,0.015848931924611127,1,0.3889773829978367
106,368,800,0.1492389857743601,0.025118864315095794,1,0.3892046680011845
106,369,000,0,0.025118864315095794,1,0.3902388130009058
106,370,400,0.07461949288718005,0.012589254117941666,1,0.4296044239999901
106,371,100,0.018654873221795012,0.01995262314968879,1,0.3665961420010717
106,372,800,0.1492389857743601,0.01995262314968879,1,0.6307884829984687
106,373,000,0,0.01995262314968879,0,0.56768391100195
106,374,200,0.037309746443590024,0.012589254117941666,1,0.5360577510000439
106,375,800,0.1492389857743601,0.015848931924611127,1,0.40192480299810995
106,376,100,0.018654873221795012,0.015848931924611127,0,0.6993458889992326
106,377,400,0.07461949288718005,0.009999999999999995,0,0.49908476199925644
106,378,200,0.037309746443590024,0.009999999999999995,1,0.547835141998803
106,379,000,0,0.025118864315095794,1,0.40595720099736354
106,380,800,0.1492389857743601,0.012589254117941666,0,0.41787820199897396
106,381,200,0.037309746443590024,0.00794328234724281,0,0.5309572459991614
106,382,000,0,0.01995262314968879,1,0.563146633998258
106,383,400,0.07461949288718005,0.012589254117941666,1,0.4415728919993853
106,384,100,0.018654873221795012,0.01995262314968879,1,0.30655925199971534
106,385,100,0.018654873221795012,0.015848931924611127,0,0.42584488799911924
106,386,200,0.037309746443590024,0.009999999999999995,0,0.48971032299959916
106,387,000,0,0.015848931924611127,0,0.3943868669994117
106,388,800_null,0.1492389857743601,0.015848931924611127,0,0.4275309219992778
106,389,400,0.07461949288718005,0.009999999999999995,0,0.6767716899994412
106,390,100,0.018654873221795012,0.01995262314968879,1,0.5508381809995626
106,391,200,0.037309746443590024,0.012589254117941666,1,0.6162922130024526
106,392,800,0.1492389857743601,0.015848931924611127,0,0.545602334997966
106,393,400,0.07461949288718005,0.012589254117941666,0,0.40010001200062106
106,394,000,0,0.01995262314968879,0,0.5684899109983235
106,395,000,0,0.025118864315095794,1,0.43826683400038746
106,396,800,0.1492389857743601,0.01995262314968879,1,0.4387001689974568
106,397,100,0.018654873221795012,0.015848931924611127,1,0.5681049569975585
106,398,400,0.07461949288718005,0.015848931924611127,0,0.660841963999701
106,399,200,0.037309746443590024,0.009999999999999995,0,0.6059142150006664
106,400,000,0,0.01995262314968879,1,0.5502808450000884
106,401,800,0.1492389857743601,0.015848931924611127,1,0.42225376200076425
106,402,200,0.037309746443590024,0.012589254117941666,0,0.6158033729989256
106,403,400,0.07461949288718005,0.01995262314968879,1,0.43263987399768666
106,404,100_null,0.018654873221795012,0.012589254117941666,0,0.4167626480011677
106,405,200,0.037309746443590024,0.015848931924611127,0,0.46619300399834174
106,406,800,0.1492389857743601,0.012589254117941666,0,0.6765553650002403
106,407,400,0.07461949288718005,0.015848931924611127,0,0.5093783740012441
106,408,000,0,0.015848931924611127,0,0.7565385590023652
106,409,100,0.018654873221795012,0.012589254117941666,0,0.6767827330004366
106,410,000_null,0,0.01995262314968879,0,0.5150191180000547
106,411,100,0.018654873221795012,0.015848931924611127,0,0.7871869009977672
106,412,400,0.07461949288718005,0.01995262314968879,0,0.515864576002059
106,413,800,0.1492389857743601,0.015848931924611127,0,0.43316030999994837
106,414,200,0.037309746443590024,0.01995262314968879,1,0.5147111320002296
106,415,800,0.1492389857743601,0.01995262314968879,1,0.3946540950018971
106,416,400,0.07461949288718005,0.025118864315095794,1,0.3238334580019
106,417,200,0.037309746443590024,0.015848931924611127,1,0.371894636999059
106,418,000,0,0.01995262314968879,0,0.4453229360005935
106,419,100,0.018654873221795012,0.01995262314968879,1,0.5972697520010115
106,420,400,0.07461949288718005,0.01995262314968879,1,0.4631334939986118
106,421,000_null,0,0.025118864315095794,0,0.56063696399724
106,422,800,0.1492389857743601,0.015848931924611127,0,0.48074351600007503
106,423,200,0.037309746443590024,0.012589254117941666,0,0.44757642000331543
106,424,100,0.018654873221795012,0.015848931924611127,0,0.38390081499892403
106,425,000,0,0.025118864315095794,0,0.36928627800079994
106,426,200,0.037309746443590024,0.015848931924611127,1,0.7913860039989231
106,427,100,0.018654873221795012,0.01995262314968879,1,0.6717073100007838
106,428,800,0.1492389857743601,0.01995262314968879,0,0.6298856749999686
106,429,400,0.07461949288718005,0.015848931924611127,1,0.41368887899807305
106,430,100,0.018654873221795012,0.015848931924611127,0,0.7110617450016434
106,431,000,0,0.031622776601683784,1,0.5990077159985958
106,432,800,0.1492389857743601,0.025118864315095794,0,0.44800336499974946
106,433,400,0.07461949288718005,0.012589254117941666,0,0.43304601699855994
106,434,200,0.037309746443590024,0.012589254117941666,0,0.4656885680014966
106,435,000_null,0,0.02511886431509579,0,0.3458100290008588
106,436,800,0.1492389857743601,0.031622776601683784,1,0.3721877520001726
106,437,100_null,0.018654873221795012,0.01995262314968879,0,0.4691867399997136
106,438,400,0.07461949288718005,0.015848931924611127,1,0.3792407399996591
106,439,200,0.037309746443590024,0.015848931924611127,1,0.48404596299951663
106,440,800,0.1492389857743601,0.02511886431509579,0,0.4765728559978015
106,441,200,0.037309746443590024,0.012589254117941666,0,0.5145036049980263
106,442,100,0.018654873221795012,0.01995262314968879,1,0.5320017220001318
106,443,000,0,0.02511886431509579,1,0.7048484350016224
106,444,400,0.07461949288718005,0.012589254117941666,0,0.5851440780024859
106,445,100,0.018654873221795012,0.015848931924611127,1,0.522407676999137
106,446,800,0.1492389857743601,0.031622776601683784,1,0.37847427499946207
106,447,400,0.07461949288718005,0.015848931924611127,1,0.5155975319976278
106,448,200,0.037309746443590024,0.015848931924611127,1,0.42813159199795336
106,449,000,0,0.01995262314968879,0,0.38104574399767444
106,450,800_null,0.1492389857743601,0.02511886431509579,0,0.4451934300013818
106,451,400,0.07461949288718005,0.012589254117941666,0,0.39830563999930746
106,452,100,0.018654873221795012,0.012589254117941666,1,0.5684896240018134
106,453,000,0,0.025118864315095794,1,0.3344946400029585
106,454,200,0.037309746443590024,0.012589254117941666,1,0.4629558150008961
106,455,800,0.1492389857743601,0.02511886431509579,1,0.3358843509995495
106,456,100,0.018654873221795012,0.009999999999999995,1,0.3903099179988203
106,457,200,0.037309746443590024,0.009999999999999995,0,0.6944362929971248
106,458,400,0.07461949288718005,0.015848931924611127,0,0.8127385830011917
106,459,000,0,0.01995262314968879,0,0.6378429579999647
106,460,800,0.1492389857743601,0.01995262314968879,1,0.36595414800103754
106,461,400,0.07461949288718005,0.01995262314968879,1,0.3106510559991875
106,462,100,0.018654873221795012,0.00794328234724281,0,0.7109078890025557
106,463,000,0,0.025118864315095794,1,0.42421553600070183
106,464,200,0.037309746443590024,0.012589254117941666,0,0.4807342139974935
106,465,000,0,0.01995262314968879,0,0.4177645300005679
106,466,200,0.037309746443590024,0.015848931924611127,1,0.499179759000981
106,467,100,0.018654873221795012,0.009999999999999995,0,0.6043630269996356
106,468,400,0.07461949288718005,0.015848931924611127,1,0.4695297180005582
106,469,800_null,0.1492389857743601,0.015848931924611127,0,0.42738378300055047
106,470,800,0.1492389857743601,0.015848931924611127,0,0.5644781750015682
106,471,400,0.07461949288718005,0.012589254117941666,0,0.5388390599982813
106,472,200_null,0.037309746443590024,0.012589254117941666,0,0.6348666619996948
106,473,000,0,0.025118864315095794,1,0.371779149001668
106,474,100,0.018654873221795012,0.012589254117941666,0,0.5058947659999831
106,475,200,0.037309746443590024,0.012589254117941666,0,0.4108409149994259
106,476,100,0.018654873221795012,0.015848931924611127,1,0.435389889000362
106,477,400_null,0.07461949288718005,0.015848931924611127,0,0.4196574490015337
106,478,800,0.1492389857743601,0.01995262314968879,0,0.42043170999750146
106,479,000,0,0.01995262314968879,0,0.47786781000104384
106,480,400,0.07461949288718005,0.015848931924611127,0,0.3916690110017953
106,481,000,0,0.025118864315095794,1,0.42081732699807617
106,482,100,0.018654873221795012,0.012589254117941666,0,0.2937346329999855
106,483,200,0.037309746443590024,0.015848931924611127,1,0.4350488370000676
106,484,800_null,0.1492389857743601,0.025118864315095794,0,0.37223088800237747
106,485,400,0.07461949288718005,0.01995262314968879,1,0.4203637889986567
106,486,200,0.037309746443590024,0.012589254117941666,0,0.5165883039990149
106,487,800,0.1492389857743601,0.025118864315095794,1,0.4529267489997437
106,488,100,0.018654873221795012,0.015848931924611127,0,0.7176590419985587
106,489,000,0,0.01995262314968879,1,0.4632259919999342
106,490,000,0,0.015848931924611127,1,0.6875402799996664
106,491,400,0.07461949288718005,0.015848931924611127,1,0.40803358500124887
106,492,100,0.018654873221795012,0.01995262314968879,0,0.5620893029990839
106,493,800,0.1492389857743601,0.01995262314968879,1,0.6264896809989295
106,494,200_null,0.037309746443590024,0.015848931924611127,0,0.5219454910002241
106,495,000,0,0.012589254117941666,0,0.41084267200130853
106,496,200,0.037309746443590024,0.015848931924611127,1,0.4722432659982587
106,497,100,0.018654873221795012,0.025118864315095794,1,0.3773433340029442
106,498,400,0.07461949288718005,0.012589254117941666,0,0.45855678400039324
106,499,800_null,0.1492389857743601,0.015848931924611127,0,0.6640403940000397
106,500,800,0.1492389857743601,0.015848931924611127,0,0.6879398810015118
106,501,100,0.018654873221795012,0.01995262314968879,0,0.6000011420001101
106,502,000,0,0.015848931924611127,0,0.4645023750017572
106,503,200,0.037309746443590024,0.012589254117941666,1,0.44974328800162766
106,504,400,0.07461949288718005,0.015848931924611127,0,0.4826444959981018
106,505,100,0.018654873221795012,0.025118864315095794,1,0.47491645000263816
106,506,800,0.1492389857743601,0.01995262314968879,1,0.7325116529973457
106,507,200,0.037309746443590024,0.009999999999999995,0,0.5504331579977588
106,508,000_null,0,0.01995262314968879,0,0.43143391799821984
106,509,400,0.07461949288718005,0.01995262314968879,1,0.45395983799971873
106,510,800,0.1492389857743601,0.015848931924611127,1,0.5587146150028275
106,511,200,0.037309746443590024,0.012589254117941666,1,0.652577985998505
106,512,100,0.018654873221795012,0.01995262314968879,0,0.7010110919982253
106,513,000,0,0.01995262314968879,0,0.4939161360016442
106,514,400,0.07461949288718005,0.015848931924611127,1,0.5240558099976624
106,515,400,0.07461949288718005,0.012589254117941666,0,0.596598157997505
106,516,000,0,0.025118864315095794,1,0.6445351929978642
106,517,800,0.1492389857743601,0.012589254117941666,0,0.5256142929974885
106,518,100,0.018654873221795012,0.025118864315095794,1,0.5176879270002246
106,519,200,0.037309746443590024,0.009999999999999995,1,0.9825813499992364
106,520,100,0.018654873221795012,0.01995262314968879,0,0.6949948100009351
106,521,400,0.07461949288718005,0.015848931924611127,1,0.8323648690020491
106,522,000,0,0.01995262314968879,0,0.8422544880013447
106,523,800,0.1492389857743601,0.015848931924611127,1,0.540133317001164
106,524,200,0.037309746443590024,0.00794328234724281,0,0.6656772120004462
106,525,200,0.037309746443590024,0.009999999999999995,0,0.5628887860002578
106,526,100,0.018654873221795012,0.025118864315095794,0,0.6003030799984117
106,527,800,0.1492389857743601,0.012589254117941666,0,0.4333512539997173
106,528,400,0.07461949288718005,0.012589254117941666,0,0.4812686240002222
106,529,000,0,0.025118864315095794,1,0.3357373690014356
106,530,800,0.1492389857743601,0.015848931924611127,0,0.7118818779999856
106,531,100,0.018654873221795012,0.031622776601683784,1,0.41661864400157356
106,532,400,0.07461949288718005,0.015848931924611127,0,0.8252549070020905
106,533,200,0.037309746443590024,0.012589254117941666,0,0.8743076419996214
106,534,000,0,0.01995262314968879,0,0.6502586639981018
106,535,000,0,0.025118864315095794,0,0.4668230200004473
106,536,200,0.037309746443590024,0.015848931924611127,1,0.46871799000291503
106,537,100,0.018654873221795012,0.02511886431509579,1,0.37398915299854707
106,538,400,0.07461949288718005,0.01995262314968879,1,0.5197901230021671
106,539,800,0.1492389857743601,0.01995262314968879,1,0.49305146600090666
106,540,100,0.018654873221795012,0.01995262314968879,0,99
106,541,800,0.1492389857743601,0.015848931924611127,0,0.7795466939969629
106,542,000_null,0,0.031622776601683784,0,0.5237545780000801
106,543,400,0.07461949288718005,0.015848931924611127,0,0.4928752980013087
106,544,200,0.037309746443590024,0.012589254117941666,0,0.7628398759989068
106,545,000,0,0.031622776601683784,1,0.4268060409995087
106,546,400,0.07461949288718005,0.01995262314968879,0,0.44411077499898965
106,547,100,0.018654873221795012,0.025118864315095794,1,0.5005637610011036
106,548,800,0.1492389857743601,0.01995262314968879,0,0.41358257600222714
106,549,200,0.037309746443590024,0.015848931924611127,0,0.4698911279992899
106,550,100,0.018654873221795012,0.01995262314968879,1,0.5267521610003314
106,551,000,0,0.02511886431509579,1,0.46323126399875036
106,552,800,0.1492389857743601,0.025118864315095794,0,0.7693161089991918
106,553,400,0.07461949288718005,0.025118864315095794,1,0.5381486990008852
106,554,200,0.037309746443590024,0.01995262314968879,0,0.6315183050028281
106,555,200,0.037309746443590024,0.025118864315095794,1,0.400948280999728
106,556,000,0,0.01995262314968879,0,0.4330015560008178
106,557,400,0.07461949288718005,0.01995262314968879,1,0.4471685829994385
106,558,100_null,0.018654873221795012,0.015848931924611127,0,0.5262935210012074
106,559,800,0.1492389857743601,0.031622776601683784,0,0.42829816499943263
106,560,000,0,0.025118864315095794,0,0.5817049609977403
106,561,800,0.1492389857743601,0.03981071705534971,1,0.325973888997396
106,562,100,0.018654873221795012,0.015848931924611127,0,0.6549875070013513
106,563,400,0.07461949288718005,0.015848931924611127,0,0.8392871680007374
106,564,200,0.037309746443590024,0.01995262314968879,1,0.42410937400200055
106,565,800,0.1492389857743601,0.031622776601683784,1,0.2645284219979658
106,566,200,0.037309746443590024,0.015848931924611127,1,0.3293842160019267
106,567,100_null,0.018654873221795012,0.01995262314968879,0,0.5866947449976578
106,568,000,0,0.031622776601683784,1,0.2677558579998731
106,569,400,0.07461949288718005,0.01995262314968879,1,0.36167282800306566
106,570,200,0.037309746443590024,0.012589254117941666,0,0.4340282230004959
106,571,000,0,0.02511886431509579,0,0.7473924449986953
106,572,800,0.1492389857743601,0.02511886431509579,1,0.41636495900092996
106,573,400,0.07461949288718005,0.015848931924611127,0,0.6178234019971569
106,574,100,0.018654873221795012,0.01995262314968879,0,0.751560826000059
106,575,000,0,0.031622776601683784,1,0.6247153670010448
106,576,400,0.07461949288718005,0.01995262314968879,1,0.5050966220005648
106,577,200,0.037309746443590024,0.015848931924611127,1,0.6024719900015043
106,578,100,0.018654873221795012,0.025118864315095794,1,0.5787216040007479
106,579,800_null,0.1492389857743601,0.01995262314968879,0,0.5337530930009962
106,580,200,0.037309746443590024,0.012589254117941666,0,0.5167520430004515
106,581,400,0.07461949288718005,0.015848931924611127,0,0.6769880860010744
106,582,000,0,0.02511886431509579,0,0.655288648998976
106,583,800,0.1492389857743601,0.01995262314968879,1,0.4401447729978827
106,584,100,0.018654873221795012,0.01995262314968879,1,0.6420613980008056
106,585,100,0.018654873221795012,0.015848931924611127,1,0.6077884980004455
106,586,000_null,0,0.031622776601683784,0,0.46466640300059225
106,587,800,0.1492389857743601,0.015848931924611127,0,0.6939906410007097
106,588,400,0.07461949288718005,0.01995262314968879,0,0.5668855490002898
106,589,200,0.037309746443590024,0.015848931924611127,1,0.5015504259972658
106,590,100,0.018654873221795012,0.012589254117941666,0,0.6861782669984677
106,591,400,0.07461949288718005,0.025118864315095794,1,0.46260071500000777
106,592,000,0,0.031622776601683784,1,0.7837984280013188
106,593,200,0.037309746443590024,0.012589254117941666,1,0.4881615919985052
106,594,800,0.1492389857743601,0.01995262314968879,0,0.6169383029991877
106,595,200,0.037309746443590024,0.009999999999999995,0,0.6423532669978158
106,596,400,0.07461949288718005,0.01995262314968879,0,0.7704180069995346
106,597,800,0.1492389857743601,0.025118864315095794,1,0.6367345430007845
106,598,100,0.018654873221795012,0.015848931924611127,1,0.4144816219995846
106,599,000_null,0,0.02511886431509579,0,0.38391949900324107
106,600,000,0,0.02511886431509579,1,0.6640719129973149
106,601,200,0.037309746443590024,0.012589254117941666,0,0.589943647999462
106,602,100,0.018654873221795012,0.012589254117941666,0,0.3505454900005134
106,603,800,0.1492389857743601,0.01995262314968879,0,0.27724378000129946
106,604,400,0.07461949288718005,0.025118864315095794,1,0.43732063499919605
106,605,200,0.037309746443590024,0.015848931924611127,0,0.398729281998385
106,606,100,0.018654873221795012,0.015848931924611127,0,0.3954463100017165
106,607,800_null,0.1492389857743601,0.025118864315095794,0,0.31663506199765834
106,608,400,0.07461949288718005,0.01995262314968879,0,0.5490554759999213
106,609,000,0,0.01995262314968879,0,0.41306099999928847
106,610,100,0.018654873221795012,0.01995262314968879,1,0.5340814150004007
106,611,200,0.037309746443590024,0.01995262314968879,1,0.42227281499799574
106,612,400,0.07461949288718005,0.025118864315095794,1,0.3675193290000607
106,613,000,0,0.025118864315095794,0,0.4570285709996824
106,614,800,0.1492389857743601,0.025118864315095794,0,0.8589240380024421
106,615,800,0.1492389857743601,0.031622776601683784,1,0.5383254030020908
106,616,000,0,0.031622776601683784,1,0.3123190499973134
106,617,400_null,0.07461949288718005,0.01995262314968879,0,0.4411944829989807
106,618,200,0.037309746443590024,0.015848931924611127,0,0.5998984809993999
106,619,100,0.018654873221795012,0.015848931924611127,0,0.47983788100100355
106,620,000,0,0.02511886431509579,1,0.3769378599972697
106,621,800_null,0.1492389857743601,0.02511886431509579,0,0.3978980399988359
106,622,200,0.037309746443590024,0.01995262314968879,0,0.839155445999495
106,623,100,0.018654873221795012,0.01995262314968879,1,0.5271787130004668
106,624,400_null,0.07461949288718005,0.01995262314968879,0,0.5283006119971105
106,625,400,0.07461949288718005,0.01995262314968879,1,0.5528212190001796
106,626,000_null,0,0.01995262314968879,0,0.6245559290000529
106,627,800,0.1492389857743601,0.02511886431509579,1,0.5700332119995437
106,628,100,0.018654873221795012,0.015848931924611127,1,0.46027909699841985
106,629,200,0.037309746443590024,0.025118864315095794,1,0.4367872949987941
106,630,000,0,0.01995262314968879,0,0.5265914720002911
106,631,400,0.07461949288718005,0.015848931924611127,0,0.6605717940001341
106,632,200,0.037309746443590024,0.01995262314968879,1,0.797974217999581
106,633,800,0.1492389857743601,0.01995262314968879,0,0.6116701179998927
106,634,100,0.018654873221795012,0.012589254117941666,0,0.4679973569982394
106,635,100,0.018654873221795012,0.015848931924611127,0,0.7415049400005955
106,636,000,0,0.025118864315095794,1,0.5146545659990807
106,637,400,0.07461949288718005,0.01995262314968879,1,0.46735120299854316
106,638,200,0.037309746443590024,0.015848931924611127,1,0.4757232859992655
106,639,800,0.1492389857743601,0.025118864315095794,0,0.46101624500079197
106,640,100,0.018654873221795012,0.01995262314968879,0,0.5409849989991926
106,641,000_null,0,0.01995262314968879,0,0.558015497001179
106,642,200,0.037309746443590024,0.012589254117941666,0,0.574474493998423
106,643,400,0.07461949288718005,0.015848931924611127,0,0.7517568629991729
106,644,800,0.1492389857743601,0.031622776601683784,1,0.41694114199708565
106,645,200,0.037309746443590024,0.015848931924611127,1,0.46626029400067637
106,646,400,0.07461949288718005,0.01995262314968879,1,0.40932081500068307
106,647,000,0,0.01995262314968879,0,0.4894159550021868
106,648,100,0.018654873221795012,0.025118864315095794,1,0.44254944199929014
106,649,800,0.1492389857743601,0.02511886431509579,1,0.3766150410010596
106,650,400,0.07461949288718005,0.015848931924611127,0,0.6569578089984134
106,651,200,0.037309746443590024,0.012589254117941666,1,0.5984456710029917
106,652,000,0,0.025118864315095794,0,0.5111595900016255
106,653,100,0.018654873221795012,0.01995262314968879,0,0.5519288530013
106,654,800,0.1492389857743601,0.01995262314968879,1,0.53683618499781
106,655,200,0.037309746443590024,0.009999999999999995,1,0.9931317270020372
106,656,400_null,0.07461949288718005,0.01995262314968879,0,0.5533024889991793
106,657,000,0,0.031622776601683784,1,0.49895347699930426
106,658,100,0.018654873221795012,0.025118864315095794,1,0.3951665939966915
106,659,800,0.1492389857743601,0.015848931924611127,0,0.5648648429996683
106,660,800,0.1492389857743601,0.01995262314968879,1,0.4543519649996597
106,661,000_null,0,0.02511886431509579,0,0.38765654300004826
106,662,400,0.07461949288718005,0.01995262314968879,0,0.42867080900032306
106,663,200,0.037309746443590024,0.00794328234724281,0,0.5327308280029683
106,664,100,0.018654873221795012,0.01995262314968879,1,0.5631543470008182
106,665,400,0.07461949288718005,0.025118864315095794,1,0.372196337000787
106,666,200,0.037309746443590024,0.009999999999999995,0,0.8504844490016694
106,667,800,0.1492389857743601,0.015848931924611127,1,0.5783587999976589
106,668,000,0,0.02511886431509579,1,0.5477107690021512
106,669,100,0.018654873221795012,0.015848931924611127,1,0.45212525600072695
106,670,200,0.037309746443590024,0.012589254117941666,0,0.509395665001648
106,671,400,0.07461949288718005,0.01995262314968879,1,0.48500477600100567
106,672,000,0,0.01995262314968879,0,0.4921459649995086
106,673,800,0.1492389857743601,0.012589254117941666,0,0.39736593699853984
106,674,100,0.018654873221795012,0.012589254117941666,0,0.46241440000085277
106,675,000_null,0,0.025118864315095794,0,0.37631069000053685
106,676,400,0.07461949288718005,0.015848931924611127,0,0.5178245709976181
106,677,800,0.1492389857743601,0.015848931924611127,1,0.47087549699790543
106,678,200,0.037309746443590024,0.015848931924611127,0,0.7923701930012612
106,679,100,0.018654873221795012,0.015848931924611127,0,0.7013548520008044
106,680,800,0.1492389857743601,0.012589254117941666,0,0.5748002440013806
106,681,000_null,0,0.025118864315095794,0,0.6283446450033807
106,682,200,0.037309746443590024,0.01995262314968879,1,0.5981698540017533
106,683,400,0.07461949288718005,0.01995262314968879,1,0.46978978799961624
106,684,100,0.018654873221795012,0.01995262314968879,0,0.5419885580013215
106,685,200,0.037309746443590024,0.015848931924611127,1,0.5830824390031921
106,686,400,0.07461949288718005,0.015848931924611127,0,0.5922085680031159
106,687,100,0.018654873221795012,0.025118864315095794,1,0.5122387269984756
106,688,800,0.1492389857743601,0.015848931924611127,1,0.8329080069997872
106,689,000,0,0.025118864315095794,0,1.1222004830015067
106,690,800,0.1492389857743601,0.012589254117941666,0,0.7401001219986938
106,691,400,0.07461949288718005,0.01995262314968879,0,99
106,692,000,0,0.031622776601683784,1,0.3707396190002328
106,693,200,0.037309746443590024,0.012589254117941666,1,0.41835679300129414
106,694,100,0.018654873221795012,0.01995262314968879,1,0.7846570239998982
106,695,100,0.018654873221795012,0.015848931924611127,1,0.617175961000612
106,696,800,0.1492389857743601,0.015848931924611127,0,0.6102597760000208
106,697,400,0.07461949288718005,0.025118864315095794,1,0.4250042339990614
106,698,200,0.037309746443590024,0.009999999999999995,0,0.505330921998393
106,699,000,0,0.02511886431509579,1,0.39409381199948257
106,700,800,0.1492389857743601,0.01995262314968879,0,0.3866463240010489
106,701,400,0.07461949288718005,0.01995262314968879,0,0.594917639002233
106,702,000,0,0.01995262314968879,1,0.508900161999918
106,703,100,0.018654873221795012,0.012589254117941666,0,0.5090225519998057
106,704,200,0.037309746443590024,0.012589254117941666,0,99
106,705,800,0.1492389857743601,0.025118864315095794,1,0.5046354000005522
106,706,100,0.018654873221795012,0.015848931924611127,1,0.9060923260003619
106,707,200,0.037309746443590024,0.015848931924611127,1,0.6149053990011453
106,708,400_null,0.07461949288718005,0.025118864315095794,0,0.504110819001653
106,709,000,0,0.015848931924611127,0,99
106,710,100,0.018654873221795012,0.012589254117941666,0,99
106,711,000,0,0.01995262314968879,0,0.7015426149991981
106,712,400,0.07461949288718005,0.025118864315095794,1,0.6445029899987276
106,713,200,0.037309746443590024,0.012589254117941666,0,1.261905981999007
106,714,800,0.1492389857743601,0.01995262314968879,1,0.7663228790006542
106,715,400,0.07461949288718005,0.01995262314968879,0,0.622180409001885
106,716,100,0.018654873221795012,0.015848931924611127,0,0.8471509490009339
106,717,200,0.037309746443590024,0.015848931924611127,0,0.8005456000028062
106,718,000,0,0.025118864315095794,0,1.0575238509991323
106,719,800,0.1492389857743601,0.015848931924611127,0,99
106,720,400_null,0.07461949288718005,0.025118864315095794,0,0.4022547480017238
106,721,200,0.037309746443590024,0.01995262314968879,1,0.4725355220034544
106,722,800,0.1492389857743601,0.01995262314968879,1,0.5286904569984472
106,723,100,0.018654873221795012,0.01995262314968879,0,0.6707008840021444
106,724,000,0,0.031622776601683784,1,0.431905982997705
106,725,000_null,0,0.02511886431509579,0,0.40767082999809645
106,726,200_null,0.037309746443590024,0.015848931924611127,0,0.5363697419998061
106,727,800,0.1492389857743601,0.015848931924611127,1,0.5133930949996284
106,728,100,0.018654873221795012,0.025118864315095794,1,0.6575326469974243
106,729,400,0.07461949288718005,0.025118864315095794,1,0.4897930199986149
106,730,800,0.1492389857743601,0.012589254117941666,0,0.45807044799948926
106,731,400,0.07461949288718005,0.01995262314968879,0,0.42780840400155284
106,732,000,0,0.02511886431509579,1,0.4775220139999874
106,733,100_null,0.018654873221795012,0.01995262314968879,0,0.564337792002334
106,734,200,0.037309746443590024,0.015848931924611127,1,0.44476527200095006
106,735,100,0.018654873221795012,0.01995262314968879,1,0.38185513300049934
106,736,400,0.07461949288718005,0.025118864315095794,1,0.3719154399987019
106,737,200,0.037309746443590024,0.012589254117941666,0,0.4279945809976198
106,738,000,0,0.01995262314968879,1,0.5975689379993128
106,739,800,0.1492389857743601,0.015848931924611127,1,0.5469126820025849
106,740,400_null,0.07461949288718005,0.01995262314968879,0,0.5555454879977333
106,741,800,0.1492389857743601,0.012589254117941666,0,0.4118667609982367
106,742,200_null,0.037309746443590024,0.015848931924611127,0,0.4451105770021968
106,743,100,0.018654873221795012,0.015848931924611127,1,0.3889226940009394
106,744,000,0,0.015848931924611127,0,0.52617010099857
106,745,400,0.07461949288718005,0.01995262314968879,0,0.5105261109965795
106,746,000,0,0.01995262314968879,0,0.5126109289994929
106,747,200,0.037309746443590024,0.015848931924611127,0,0.8098280010017334
106,748,100,0.018654873221795012,0.012589254117941666,0,0.6836323610004911
106,749,800_null,0.1492389857743601,0.015848931924611127,0,0.4421037729989621
106,750,400,0.07461949288718005,0.025118864315095794,1,0.49019329200018547
106,751,000,0,0.025118864315095794,1,0.512395400000969
106,752,100,0.018654873221795012,0.015848931924611127,0,0.8883828840007482
106,753,800,0.1492389857743601,0.015848931924611127,1,0.6257750869990559
106,754,200,0.037309746443590024,0.01995262314968879,1,0.6081211989985604
106,755,200,0.037309746443590024,0.015848931924611127,1,0.8159672610017878
106,756,800,0.1492389857743601,0.012589254117941666,0,0.5131485179990705
106,757,400,0.07461949288718005,0.01995262314968879,1,0.5132994009982212
106,758,100,0.018654873221795012,0.01995262314968879,1,0.466676006999478
106,759,000,0,0.01995262314968879,0,0.4425560490017233
106,760,000,0,0.025118864315095794,0,0.48301401599746896
106,761,800,0.1492389857743601,0.015848931924611127,1,0.5962131199994474
106,762,100,0.018654873221795012,0.015848931924611127,0,0.7666596679991926
106,763,400,0.07461949288718005,0.015848931924611127,0,0.4961022600000433
106,764,200,0.037309746443590024,0.012589254117941666,0,0.6459278849979455
106,765,400,0.07461949288718005,0.01995262314968879,1,0.510617378000461
106,766,100,0.018654873221795012,0.01995262314968879,0,0.7805995009985054
106,767,200,0.037309746443590024,0.015848931924611127,1,0.5567760859994451
106,768,800,0.1492389857743601,0.012589254117941666,1,0.5182558380001865
106,769,000,0,0.031622776601683784,1,0.2920993109983101
106,770,800,0.1492389857743601,0.009999999999999995,0,0.4042435480005224
106,771,400,0.07461949288718005,0.015848931924611127,0,0.4615820499966503
106,772,000,0,0.02511886431509579,0,0.7339332950032258
106,773,100_null,0.018654873221795012,0.025118864315095794,0,0.5825954770007229
106,774,200,0.037309746443590024,0.012589254117941666,1,0.6708581489983771
106,775,100,0.018654873221795012,0.025118864315095794,1,0.3282096199982334
106,776,400,0.07461949288718005,0.01995262314968879,0,0.36041866400046274
106,777,200,0.037309746443590024,0.009999999999999995,0,0.6264076939987717
106,778,800,0.1492389857743601,0.012589254117941666,0,0.8994284100008372
106,779,000,0,0.031622776601683784,1,0.5216381900027045
106,780,100,0.018654873221795012,0.01995262314968879,1,0.8904586729986477
106,781,000,0,0.02511886431509579,1,0.3040278570006194
106,782,400,0.07461949288718005,0.025118864315095794,1,0.3696039090027625
106,783,800,0.1492389857743601,0.015848931924611127,1,0.3292274619998352
106,784,200,0.037309746443590024,0.012589254117941666,1,0.5433448999974644
106,785,100,0.018654873221795012,0.015848931924611127,1,0.5046723090017622
106,786,800,0.1492389857743601,0.012589254117941666,0,0.4650274380001065
106,787,200_null,0.037309746443590024,0.009999999999999995,0,99
106,788,400_null,0.07461949288718005,0.01995262314968879,0,99
106,789,000,0,0.01995262314968879,0,0.6810724429997208
106,790,100,0.018654873221795012,0.012589254117941666,0,0.585880922000797
106,791,800,0.1492389857743601,0.015848931924611127,1,0.6749245219980367
106,792,000,0,0.025118864315095794,1,0.33129947199995513
106,793,400,0.07461949288718005,0.01995262314968879,0,0.5821403349982575
106,794,200_null,0.037309746443590024,0.009999999999999995,0,0.4114269290002994
106,795,800,0.1492389857743601,0.012589254117941666,0,0.3405232810000598
106,796,200,0.037309746443590024,0.009999999999999995,0,0.4447711370012257
106,797,400,0.07461949288718005,0.025118864315095794,1,0.5225100700008625
106,798,000,0,0.01995262314968879,0,0.46805345000029774
106,799,100,0.018654873221795012,0.015848931924611127,0,0.5457788479980081
106,800,200,0.037309746443590024,0.012589254117941666,0,0.4741733929986367
106,801,100,0.018654873221795012,0.01995262314968879,1,0.4276497529972403
106,802,000_null,0,0.025118864315095794,0,0.4035821309989842
106,803,800,0.1492389857743601,0.015848931924611127,1,0.6756145459985419
106,804,400,0.07461949288718005,0.01995262314968879,1,0.5100823079992551
106,805,800,0.1492389857743601,0.012589254117941666,0,0.6321347240009345
106,806,000,0,0.025118864315095794,1,0.4148380010010442
106,807,400,0.07461949288718005,0.015848931924611127,1,0.4485242869996
106,808,100,0.018654873221795012,0.015848931924611127,1,0.42516921300193644
106,809,200,0.037309746443590024,0.015848931924611127,1,0.31960889699985273
106,810,200,0.037309746443590024,0.012589254117941666,1,0.3605892710002081
106,811,800,0.1492389857743601,0.015848931924611127,0,0.65711993199875
106,812,000,0,0.01995262314968879,0,0.39112212899999577
106,813,400_null,0.07461949288718005,0.012589254117941666,0,0.4872613440020359
106,814,100,0.018654873221795012,0.012589254117941666,0,0.6463501209982496
106,815,800_null,0.1492389857743601,0.01995262314968879,0,0.4952276020012505
106,816,200,0.037309746443590024,0.009999999999999995,0,0.5198716140002944
106,817,400,0.07461949288718005,0.012589254117941666,0,0.48912080000081914
106,818,000,0,0.025118864315095794,1,0.6567554109969933
106,819,100,0.018654873221795012,0.015848931924611127,1,0.48254817400083994
106,820,800,0.1492389857743601,0.01995262314968879,0,0.6351727800029039
106,821,100,0.018654873221795012,0.012589254117941666,0,0.45151368799997726
106,822,400,0.07461949288718005,0.015848931924611127,1,0.4137829990031605
106,823,200,0.037309746443590024,0.012589254117941666,0,0.5675656120001804
106,824,000,0,0.01995262314968879,0,0.40935660200193524
106,825,000,0,0.025118864315095794,1,0.38098203300251043
106,826,200,0.037309746443590024,0.015848931924611127,0,0.5822143570003391
106,827,800,0.1492389857743601,0.025118864315095794,1,0.6927139170002192
106,828,100,0.018654873221795012,0.015848931924611127,1,0.6049215419989196
106,829,400,0.07461949288718005,0.012589254117941666,1,0.5718069920003472
106,830,400,0.07461949288718005,0.009999999999999995,1,0.4289007719999063
106,831,100,0.018654873221795012,0.012589254117941666,1,0.5570948599997791
106,832,000,0,0.01995262314968879,0,0.4225078780000331
106,833,200,0.037309746443590024,0.01995262314968879,1,0.5504603039989888
106,834,800,0.1492389857743601,0.01995262314968879,0,0.6079783780005528
106,835,800,0.1492389857743601,0.025118864315095794,1,0.4486168019975594
106,836,200,0.037309746443590024,0.015848931924611127,1,0.5140391570021166
106,837,000,0,0.025118864315095794,0,0.5130647130026773
106,838,400,0.07461949288718005,0.00794328234724281,0,0.9224788559986337
106,839,100,0.018654873221795012,0.009999999999999995,0,0.9955077029990207
