id,trial,label,FC,TC,response,RT
109,0,400,0.08734362035473532,0.1,1,0.4090506889988319
109,1,100,0.02183590508868383,0.1,1,0.3295082390031894
109,2,800,0.17468724070947064,0.1,1,0.31447713700617896
109,3,000,0,0.1,1,0.3236475339945173
109,4,200,0.04367181017736766,0.1,1,0.2616941309970571
109,5,000,0,0.07943282347242815,1,0.2276345880018198
109,6,200,0.04367181017736766,0.07943282347242815,1,0.2128249989982578
109,7,100,0.02183590508868383,0.07943282347242815,1,0.2503637020054157
109,8,800,0.17468724070947064,0.07943282347242815,1,0.27494646400009515
109,9,400,0.08734362035473532,0.07943282347242815,1,0.25252443499630317
109,10,100,0.02183590508868383,0.06309573444801932,1,0.2817277270005434
109,11,800,0.17468724070947064,0.06309573444801932,1,0.2587144260032801
109,12,200,0.04367181017736766,0.06309573444801932,1,0.2349233290005941
109,13,000,0,0.06309573444801932,1,0.2109021450014552
109,14,400,0.08734362035473532,0.06309573444801932,1,0.2202954550011782
109,15,000,0,0.05011872336272722,1,0.2687503800043487
109,16,800,0.17468724070947064,0.05011872336272722,1,0.25361014600639464
109,17,200,0.04367181017736766,0.05011872336272722,1,0.22255910500098253
109,18,100,0.02183590508868383,0.05011872336272722,1,0.2960735949964146
109,19,400,0.08734362035473532,0.05011872336272722,1,0.3052799880024395
109,20,400,0.08734362035473532,0.03981071705534971,1,0.5029849760030629
109,21,000,0,0.03981071705534971,1,0.4403941060008947
109,22,800_null,0.17468724070947064,0.03981071705534971,0,0.3495224439975573
109,23,100,0.02183590508868383,0.03981071705534971,1,0.29490595099923667
109,24,200,0.04367181017736766,0.03981071705534971,1,0.3584991129973787
109,25,400,0.08734362035473532,0.031622776601683784,1,0.32524552500399295
109,26,000,0,0.031622776601683784,1,0.6455072230019141
109,27,100,0.02183590508868383,0.031622776601683784,1,0.6225366969956667
109,28,200,0.04367181017736766,0.031622776601683784,1,0.550304521995713
109,29,800,0.17468724070947064,0.03981071705534971,1,0.5359020069954568
109,30,400,0.08734362035473532,0.02511886431509579,1,0.3677760419959668
109,31,100,0.02183590508868383,0.02511886431509579,1,0.392837913997937
109,32,200_null,0.04367181017736766,0.02511886431509579,0,0.4091769100050442
109,33,000,0,0.02511886431509579,1,0.41071479600213934
109,34,800_null,0.17468724070947064,0.031622776601683784,0,0.4686990800037165
109,35,400,0.08734362035473532,0.01995262314968879,0,0.5067541519965744
109,36,800,0.17468724070947064,0.031622776601683784,1,0.5149288089960464
109,37,100,0.02183590508868383,0.01995262314968879,1,0.41998179799702484
109,38,000,0,0.01995262314968879,0,0.5853303490002872
109,39,200,0.04367181017736766,0.02511886431509579,1,0.5782972000015434
109,40,000,0,0.025118864315095794,1,0.7045568289977382
109,41,100,0.02183590508868383,0.015848931924611127,1,0.6325911710009677
109,42,400,0.08734362035473532,0.025118864315095794,1,0.4178442590055056
109,43,800,0.17468724070947064,0.02511886431509579,1,0.48220518099697074
109,44,200,0.04367181017736766,0.01995262314968879,0,0.5784620690028532
109,45,000_null,0,0.01995262314968879,0,0.6029386160007562
109,46,200,0.04367181017736766,0.025118864315095794,1,0.5083084660000168
109,47,100,0.02183590508868383,0.012589254117941666,1,0.49251500600075815
109,48,800,0.17468724070947064,0.01995262314968879,1,0.5820234370039543
109,49,400,0.08734362035473532,0.01995262314968879,1,0.7362913570032106
109,50,200_null,0.04367181017736766,0.01995262314968879,0,0.41407973899913486
109,51,400_null,0.08734362035473532,0.015848931924611127,0,0.5671420370053966
109,52,800,0.17468724070947064,0.015848931924611127,1,0.4550261309996131
109,53,000,0,0.01995262314968879,0,0.6373090930064791
109,54,100,0.02183590508868383,0.009999999999999995,0,0.6856566700007534
109,55,200_null,0.04367181017736766,0.01995262314968879,0,0.763639692995639
109,56,400,0.08734362035473532,0.015848931924611127,0,0.8288242669950705
109,57,800,0.17468724070947064,0.012589254117941666,1,0.7812285369946039
109,58,000,0,0.025118864315095794,1,0.670435362997523
109,59,100,0.02183590508868383,0.012589254117941666,0,0.4780748399934964
109,60,400,0.08734362035473532,0.01995262314968879,0,0.7352715980014182
109,61,100,0.02183590508868383,0.015848931924611127,0,0.7438483950027148
109,62,000,0,0.01995262314968879,0,0.7449271100049373
109,63,200,0.04367181017736766,0.01995262314968879,1,0.6575132930011023
109,64,800,0.17468724070947064,0.009999999999999995,1,0.6518273619949468
109,65,400,0.08734362035473532,0.025118864315095794,1,0.6050049000041327
109,66,800,0.17468724070947064,0.00794328234724281,0,0.6435398579997127
109,67,200,0.04367181017736766,0.015848931924611127,1,0.6600403359989286
109,68,000,0,0.025118864315095794,1,0.7216650899936212
109,69,100,0.02183590508868383,0.01995262314968879,1,0.6981324250009493
109,70,000,0,0.01995262314968879,0,0.6814544009976089
109,71,200_null,0.04367181017736766,0.012589254117941666,0,0.6414113970022299
109,72,400_null,0.08734362035473532,0.01995262314968879,0,0.6186200939991977
109,73,100,0.02183590508868383,0.015848931924611127,0,0.6824298660067143
109,74,800,0.17468724070947064,0.009999999999999995,0,0.8115536990007968
109,75,400,0.08734362035473532,0.01995262314968879,1,0.6200108639968676
109,76,200_null,0.04367181017736766,0.012589254117941666,0,0.48737553800310707
109,77,800,0.17468724070947064,0.012589254117941666,0,0.6462656049989164
109,78,000,0,0.025118864315095794,0,0.7516266659949906
109,79,100,0.02183590508868383,0.01995262314968879,0,0.729665335995378
109,80,000,0,0.031622776601683784,1,0.6664982290021726
109,81,200,0.04367181017736766,0.012589254117941666,0,0.5837660800025333
109,82,400,0.08734362035473532,0.015848931924611127,1,0.6334439890051726
109,83,100_null,0.02183590508868383,0.025118864315095794,0,0.7272772039941628
109,84,800_null,0.17468724070947064,0.015848931924611127,0,0.6953142999991542
109,85,800,0.17468724070947064,0.015848931924611127,1,0.5605866070036427
109,86,400,0.08734362035473532,0.012589254117941666,1,0.3104340760037303
109,87,200,0.04367181017736766,0.015848931924611127,0,0.27184185099758906
109,88,000,0,0.02511886431509579,0,0.44796664000023156
109,89,100,0.02183590508868383,0.025118864315095794,0,0.6333528879986261
109,90,200,0.04367181017736766,0.01995262314968879,0,0.673331412996049
109,91,100,0.02183590508868383,0.031622776601683784,1,0.46658957799809286
109,92,000_null,0,0.031622776601683784,0,0.5801055709962384
109,93,400,0.08734362035473532,0.009999999999999995,0,0.548900813999353
109,94,800_null,0.17468724070947064,0.012589254117941666,0,0.5187488640003721
109,95,200,0.04367181017736766,0.025118864315095794,0,0.4315331310062902
109,96,400_null,0.08734362035473532,0.012589254117941666,0,0.4452972020008019
109,97,000,0,0.031622776601683784,0,0.3739025290051359
109,98,800,0.17468724070947064,0.012589254117941666,1,0.5477836380014196
109,99,100,0.02183590508868383,0.02511886431509579,1,0.5808766070040292
109,100,000,0,0.03981071705534971,1,0.6609398900036467
109,101,400,0.08734362035473532,0.012589254117941666,1,0.6760856849941774
109,102,200,0.04367181017736766,0.031622776601683784,1,0.7415529179997975
109,103,800,0.17468724070947064,0.009999999999999995,1,0.5892236119980225
109,104,100,0.02183590508868383,0.01995262314968879,1,0.5827601359997061
109,105,400,0.08734362035473532,0.009999999999999995,1,0.598861577003845
109,106,100,0.02183590508868383,0.015848931924611127,0,0.6559381830011262
109,107,200,0.04367181017736766,0.02511886431509579,0,0.6732086269985302
109,108,800,0.17468724070947064,0.00794328234724281,0,0.6890174720028881
109,109,000,0,0.031622776601683784,1,0.5464347759989323
109,110,400,0.08734362035473532,0.00794328234724281,0,0.5340556849987479
109,111,200,0.04367181017736766,0.031622776601683784,1,0.514509436005028
109,112,000,0,0.02511886431509579,1,0.4826985309991869
109,113,100,0.02183590508868383,0.01995262314968879,1,0.5880224569991697
109,114,800,0.17468724070947064,0.009999999999999995,0,0.529813599998306
109,115,000,0,0.01995262314968879,0,0.5862724719991093
109,116,800,0.17468724070947064,0.012589254117941666,0,0.6736330540006747
109,117,400,0.08734362035473532,0.009999999999999995,0,0.7305304530018475
109,118,200,0.04367181017736766,0.02511886431509579,0,0.8750364980005543
109,119,100,0.02183590508868383,0.015848931924611127,1,0.7321450059971539
109,120,100,0.02183590508868383,0.012589254117941666,0,99
109,121,200_null,0.04367181017736766,0.031622776601683784,0,0.5305652469978668
109,122,400,0.08734362035473532,0.012589254117941666,0,0.42590751799434656
109,123,000,0,0.025118864315095794,1,0.3952282429963816
109,124,800,0.17468724070947064,0.015848931924611127,1,0.46724917800020194
109,125,100_null,0.02183590508868383,0.015848931924611127,0,0.43602936399838654
109,126,800,0.17468724070947064,0.012589254117941666,0,0.5003189990020473
109,127,000,0,0.01995262314968879,0,0.4227759450004669
109,128,200,0.04367181017736766,0.031622776601683784,1,0.35284462200070266
109,129,400,0.08734362035473532,0.015848931924611127,0,0.43463540799712064
109,130,400,0.08734362035473532,0.01995262314968879,0,0.3542724330036435
109,131,000,0,0.025118864315095794,0,0.32936805699864635
109,132,100,0.02183590508868383,0.015848931924611127,1,0.322346552995441
109,133,200,0.04367181017736766,0.02511886431509579,1,0.40778568999667186
109,134,800,0.17468724070947064,0.015848931924611127,1,0.36094180699728895
109,135,200,0.04367181017736766,0.01995262314968879,1,0.3190293349980493
109,136,100,0.02183590508868383,0.012589254117941666,0,0.35127189800550696
109,137,000_null,0,0.031622776601683784,0,0.34415959200123325
109,138,400,0.08734362035473532,0.025118864315095794,0,0.3591703330021119
109,139,800,0.17468724070947064,0.012589254117941666,0,0.5124247170024319
109,140,200,0.04367181017736766,0.015848931924611127,1,0.48895860600168817
109,141,800,0.17468724070947064,0.015848931924611127,1,0.3781569330021739
109,142,100,0.02183590508868383,0.015848931924611127,1,0.37792026300303405
109,143,000,0,0.031622776601683784,1,0.3163294490004773
109,144,400,0.08734362035473532,0.031622776601683784,1,0.40608802899805596
109,145,000,0,0.02511886431509579,1,0.33243235100235324
109,146,400,0.08734362035473532,0.02511886431509579,1,0.29341480099537876
109,147,200,0.04367181017736766,0.012589254117941666,1,0.45400656499987235
109,148,800,0.17468724070947064,0.012589254117941666,1,0.4996667390005314
109,149,100,0.02183590508868383,0.012589254117941666,0,0.5879240659996867
109,150,400,0.08734362035473532,0.01995262314968879,0,0.5705180410004687
109,151,000,0,0.01995262314968879,0,0.4746198029970401
109,152,800,0.17468724070947064,0.009999999999999995,0,0.46750625500135357
109,153,200,0.04367181017736766,0.009999999999999995,0,0.4436054840043653
109,154,100,0.02183590508868383,0.015848931924611127,0,0.46011032900423743
109,155,200,0.04367181017736766,0.012589254117941666,0,0.5813096150013735
109,156,400,0.08734362035473532,0.025118864315095794,1,0.5166962449948187
109,157,100_null,0.02183590508868383,0.01995262314968879,0,0.6060386590033886
109,158,000,0,0.025118864315095794,1,0.44021236000116915
109,159,800,0.17468724070947064,0.012589254117941666,0,0.43385167599626584
109,160,100,0.02183590508868383,0.01995262314968879,0,0.5278682700009085
109,161,400,0.08734362035473532,0.01995262314968879,1,0.5047873399962555
109,162,800,0.17468724070947064,0.015848931924611127,1,0.4493861429946264
109,163,000,0,0.01995262314968879,0,0.6872387490002438
109,164,200,0.04367181017736766,0.015848931924611127,1,0.5203487880062312
109,165,800,0.17468724070947064,0.012589254117941666,0,0.5256990659981966
109,166,000,0,0.025118864315095794,1,0.6866836209956091
109,167,100,0.02183590508868383,0.025118864315095794,1,0.5908308699945337
109,168,200,0.04367181017736766,0.012589254117941666,0,0.4072646040003747
109,169,400,0.08734362035473532,0.015848931924611127,0,0.5925930220037117
109,170,000,0,0.01995262314968879,0,0.49634504099958576
109,171,800,0.17468724070947064,0.015848931924611127,0,0.5295358559960732
109,172,200,0.04367181017736766,0.015848931924611127,0,0.6818495480038109
109,173,100,0.02183590508868383,0.01995262314968879,0,0.7877594210003735
109,174,400_null,0.08734362035473532,0.01995262314968879,0,0.8451593560021138
109,175,000,0,0.025118864315095794,1,0.4794892669960973
109,176,200,0.04367181017736766,0.01995262314968879,1,0.4132632099936018
109,177,800_null,0.17468724070947064,0.01995262314968879,0,0.438394924000022
109,178,400,0.08734362035473532,0.01995262314968879,0,0.6196192669958691
109,179,100,0.02183590508868383,0.025118864315095794,0,0.5648836580003262
109,180,800,0.17468724070947064,0.01995262314968879,1,0.508806274003291
109,181,200,0.04367181017736766,0.015848931924611127,0,0.4591392660004203
109,182,000,0,0.01995262314968879,0,0.3394931889997679
109,183,100,0.02183590508868383,0.031622776601683784,1,0.452195247002237
109,184,400,0.08734362035473532,0.025118864315095794,1,0.47636304100160487
109,185,800,0.17468724070947064,0.015848931924611127,1,0.6616242099989904
109,186,100,0.02183590508868383,0.02511886431509579,1,0.4382660549963475
109,187,400,0.08734362035473532,0.01995262314968879,0,0.39937681499577593
109,188,200,0.04367181017736766,0.01995262314968879,0,0.4962969139960478
109,189,000,0,0.025118864315095794,1,0.3697312750009587
109,190,800,0.17468724070947064,0.012589254117941666,0,0.3714162519972888
109,191,000,0,0.01995262314968879,0,0.4576324220033712
109,192,100,0.02183590508868383,0.01995262314968879,1,0.5062037050010986
109,193,400,0.08734362035473532,0.025118864315095794,1,0.6080082970001968
109,194,200,0.04367181017736766,0.025118864315095794,1,0.6175227069979883
109,195,200,0.04367181017736766,0.01995262314968879,0,0.4654582799994387
109,196,800,0.17468724070947064,0.015848931924611127,1,0.46339885400084313
109,197,100,0.02183590508868383,0.015848931924611127,0,0.6004721729987068
109,198,400,0.08734362035473532,0.01995262314968879,1,0.5608583110006293
109,199,000_null,0,0.025118864315095794,0,0.32129279500077246
109,200,000,0,0.025118864315095794,0,0.47412487999827135
109,201,800,0.17468724070947064,0.012589254117941666,0,0.4354576229961822
109,202,400,0.08734362035473532,0.015848931924611127,1,0.44307538300199667
109,203,100,0.02183590508868383,0.01995262314968879,0,0.4528556449949974
109,204,200,0.04367181017736766,0.025118864315095794,1,0.4383490339969285
109,205,000,0,0.031622776601683784,0,0.4161914419964887
109,206,100,0.02183590508868383,0.025118864315095794,1,0.341994735004846
109,207,400,0.08734362035473532,0.012589254117941666,0,0.38326745799713535
109,208,800,0.17468724070947064,0.015848931924611127,0,0.5326057119964389
109,209,200,0.04367181017736766,0.01995262314968879,0,0.4854290250004851
109,210,200,0.04367181017736766,0.025118864315095794,1,0.6137290789993131
109,211,400,0.08734362035473532,0.015848931924611127,1,0.5879901459993562
109,212,000,0,0.03981071705534971,1,0.47726805099955527
109,213,100,0.02183590508868383,0.01995262314968879,0,0.4850512839984731
109,214,800,0.17468724070947064,0.01995262314968879,1,0.5341870699994615
109,215,800,0.17468724070947064,0.015848931924611127,0,0.7025518709997414
109,216,200_null,0.04367181017736766,0.01995262314968879,0,0.6396135420000064
109,217,000,0,0.031622776601683784,1,0.47182146799605107
109,218,400,0.08734362035473532,0.012589254117941666,0,0.4892080050049117
109,219,100,0.02183590508868383,0.025118864315095794,1,0.5063223680044757
109,220,000,0,0.02511886431509579,0,0.4126026100057061
109,221,100,0.02183590508868383,0.01995262314968879,0,0.5627245379946544
109,222,400_null,0.08734362035473532,0.015848931924611127,0,0.7788207510020584
109,223,800,0.17468724070947064,0.01995262314968879,1,0.7239683130028425
109,224,200,0.04367181017736766,0.01995262314968879,0,0.5529429520029225
109,225,800,0.17468724070947064,0.015848931924611127,0,0.5702266879961826
109,226,200_null,0.04367181017736766,0.025118864315095794,0,0.464332404997549
109,227,400,0.08734362035473532,0.015848931924611127,0,0.616546268996899
109,228,000,0,0.031622776601683784,1,0.5853951199969742
109,229,100,0.02183590508868383,0.025118864315095794,0,0.44962869500159286
109,230,800,0.17468724070947064,0.01995262314968879,0,0.4988566620013444
109,231,400,0.08734362035473532,0.01995262314968879,0,0.5311793180007953
109,232,100,0.02183590508868383,0.031622776601683784,1,0.34844633399916347
109,233,200,0.04367181017736766,0.025118864315095794,1,0.3961801019977429
109,234,000,0,0.02511886431509579,1,0.6857815600014874
109,235,100,0.02183590508868383,0.02511886431509579,0,0.463116983002692
109,236,000_null,0,0.01995262314968879,0,0.5249839309981326
109,237,200,0.04367181017736766,0.01995262314968879,0,0.6700471170042874
109,238,400,0.08734362035473532,0.025118864315095794,0,0.5501758129976224
109,239,800,0.17468724070947064,0.025118864315095794,1,0.44461409200448543
109,240,400,0.08734362035473532,0.031622776601683784,0,0.4344131909965654
109,241,000,0,0.01995262314968879,0,0.4644874220030033
109,242,200,0.04367181017736766,0.025118864315095794,1,0.521525048003241
109,243,100,0.02183590508868383,0.031622776601683784,1,0.3374212169946986
109,244,800,0.17468724070947064,0.01995262314968879,1,0.5117534890014213
109,245,100,0.02183590508868383,0.02511886431509579,1,0.4398579080007039
109,246,800,0.17468724070947064,0.015848931924611127,1,0.5268679519940633
109,247,200,0.04367181017736766,0.01995262314968879,1,0.4390562170010526
109,248,000,0,0.025118864315095794,1,0.34427620300266426
109,249,400,0.08734362035473532,0.03981071705534971,1,0.5845809689999442
109,250,000,0,0.01995262314968879,0,0.385436483004014
109,251,200,0.04367181017736766,0.015848931924611127,0,0.5138510390024749
109,252,400,0.08734362035473532,0.031622776601683784,1,0.5632543609972345
109,253,100,0.02183590508868383,0.01995262314968879,1,0.5802137370046694
109,254,800,0.17468724070947064,0.012589254117941666,0,0.41420668200589716
109,255,400,0.08734362035473532,0.02511886431509579,1,0.4705785999976797
109,256,000,0,0.025118864315095794,1,0.39990752800076734
109,257,800,0.17468724070947064,0.015848931924611127,1,0.5407686859980458
109,258,100,0.02183590508868383,0.015848931924611127,1,0.44629655400058255
109,259,200,0.04367181017736766,0.01995262314968879,0,0.3963222719976329
109,260,000,0,0.01995262314968879,0,0.47614540900394786
109,261,400,0.08734362035473532,0.01995262314968879,0,0.5175565699973959
109,262,800,0.17468724070947064,0.012589254117941666,0,0.4927048190002097
109,263,100,0.02183590508868383,0.012589254117941666,0,0.5326635940000415
109,264,200,0.04367181017736766,0.025118864315095794,1,0.4380528590045287
109,265,000,0,0.025118864315095794,1,0.46226823400502326
109,266,100,0.02183590508868383,0.015848931924611127,1,0.4555359590012813
109,267,800,0.17468724070947064,0.015848931924611127,1,0.5686264840041986
109,268,200,0.04367181017736766,0.01995262314968879,0,0.49784169100166764
109,269,400,0.08734362035473532,0.025118864315095794,1,0.6087497729968163
109,270,000_null,0,0.01995262314968879,0,0.5078814099979354
109,271,100,0.02183590508868383,0.012589254117941666,0,0.5411688789972686
109,272,400_null,0.08734362035473532,0.01995262314968879,0,0.6101750660018297
109,273,800,0.17468724070947064,0.012589254117941666,0,0.6662331700063078
109,274,200_null,0.04367181017736766,0.025118864315095794,0,0.6876269040003535
109,275,200,0.04367181017736766,0.025118864315095794,1,0.656935163999151
109,276,800,0.17468724070947064,0.015848931924611127,1,0.7210349360029795
109,277,000,0,0.01995262314968879,0,0.5521197080015554
109,278,100,0.02183590508868383,0.015848931924611127,1,0.45730696100508794
109,279,400,0.08734362035473532,0.01995262314968879,1,0.6819483950021095
109,280,100,0.02183590508868383,0.012589254117941666,0,0.4905021129961824
109,281,200,0.04367181017736766,0.01995262314968879,0,0.48271695699804695
109,282,400,0.08734362035473532,0.015848931924611127,0,0.6863053249981022
109,283,000,0,0.025118864315095794,1,0.4379412330017658
109,284,800,0.17468724070947064,0.012589254117941666,0,0.463295065004786
109,285,400,0.08734362035473532,0.01995262314968879,0,0.39260634899983415
109,286,100,0.02183590508868383,0.015848931924611127,0,0.6417591819990776
109,287,800,0.17468724070947064,0.015848931924611127,0,0.5097192479952355
109,288,000,0,0.01995262314968879,0,0.4139012500017998
109,289,200_null,0.04367181017736766,0.025118864315095794,0,0.5637136820005253
109,290,100,0.02183590508868383,0.01995262314968879,0,0.5168453349979245
109,291,200,0.04367181017736766,0.025118864315095794,1,0.4691476270018029
109,292,000,0,0.025118864315095794,1,0.5804785380023532
109,293,400,0.08734362035473532,0.025118864315095794,1,0.5817658779997146
109,294,800,0.17468724070947064,0.01995262314968879,1,0.5506918449973455
109,295,100,0.02183590508868383,0.025118864315095794,0,0.6628390260011656
109,296,000,0,0.01995262314968879,0,0.6231467739999061
109,297,800,0.17468724070947064,0.015848931924611127,1,0.5611737040017033
109,298,400,0.08734362035473532,0.01995262314968879,0,0.48234188400238054
109,299,200,0.04367181017736766,0.01995262314968879,0,0.625904555003217
109,300,800_null,0.17468724070947064,0.012589254117941666,0,0.7148153009984526
109,301,400,0.08734362035473532,0.025118864315095794,1,0.5319013249973068
109,302,000,0,0.025118864315095794,1,0.6169190299988259
109,303,200,0.04367181017736766,0.025118864315095794,0,0.4983191689971136
109,304,100,0.02183590508868383,0.031622776601683784,1,0.47459916999650886
109,305,100,0.02183590508868383,0.02511886431509579,1,0.5686648900009459
109,306,400,0.08734362035473532,0.01995262314968879,0,0.4890632290043868
109,307,800,0.17468724070947064,0.012589254117941666,0,0.5290430800014292
109,308,000,0,0.01995262314968879,1,0.5220798810041742
109,309,200,0.04367181017736766,0.031622776601683784,1,0.5458751379992464
109,310,100,0.02183590508868383,0.01995262314968879,0,0.47513605499989353
109,311,200,0.04367181017736766,0.02511886431509579,1,0.43528265899658436
109,312,800,0.17468724070947064,0.015848931924611127,0,0.47809014299855335
109,313,400,0.08734362035473532,0.025118864315095794,1,0.4866323019959964
109,314,000,0,0.015848931924611127,0,0.3209368310053833
109,315,400,0.08734362035473532,0.01995262314968879,0,0.43086710400530137
109,316,000,0,0.01995262314968879,0,0.4324027600014233
109,317,200,0.04367181017736766,0.01995262314968879,0,0.5810759790037991
109,318,800,0.17468724070947064,0.01995262314968879,0,0.6703607629970065
109,319,100,0.02183590508868383,0.025118864315095794,0,0.7269044880013098
109,320,400_null,0.08734362035473532,0.025118864315095794,0,0.78120707499329
109,321,100,0.02183590508868383,0.031622776601683784,1,0.5340922530012904
109,322,000,0,0.025118864315095794,1,0.5091474500004551
109,323,200_null,0.04367181017736766,0.025118864315095794,0,0.39056565999635495
109,324,800,0.17468724070947064,0.025118864315095794,1,0.47880349100159947
109,325,100,0.02183590508868383,0.02511886431509579,0,0.5276347649996751
109,326,800,0.17468724070947064,0.01995262314968879,1,0.5769859879947035
109,327,400,0.08734362035473532,0.025118864315095794,0,0.6020470330040553
109,328,000,0,0.01995262314968879,0,0.6761390249957913
109,329,200,0.04367181017736766,0.025118864315095794,0,0.7337063839950133
109,330,100,0.02183590508868383,0.031622776601683784,1,0.5716539759960142
109,331,200,0.04367181017736766,0.031622776601683784,1,0.4683554329967592
109,332,400,0.08734362035473532,0.031622776601683784,1,0.6976361560009536
109,333,000,0,0.025118864315095794,0,0.8270559390002745
109,334,800,0.17468724070947064,0.015848931924611127,0,0.7561910720032756
109,335,200,0.04367181017736766,0.02511886431509579,1,0.6570213700033491
109,336,800,0.17468724070947064,0.01995262314968879,1,0.59435223100445
109,337,000,0,0.031622776601683784,1,0.6430287990006036
109,338,100,0.02183590508868383,0.02511886431509579,0,0.47480016599729424
109,339,400,0.08734362035473532,0.02511886431509579,1,0.5160291549982503
109,340,000,0,0.02511886431509579,1,0.5159671569999773
109,341,800,0.17468724070947064,0.015848931924611127,0,0.5408406069982448
109,342,100,0.02183590508868383,0.031622776601683784,1,0.5419116019984358
109,343,200,0.04367181017736766,0.01995262314968879,0,0.535500931997376
109,344,400,0.08734362035473532,0.01995262314968879,1,0.6330979180056602
109,345,400_null,0.08734362035473532,0.015848931924611127,0,0.431387551005173
109,346,800,0.17468724070947064,0.01995262314968879,1,0.44793498999933945
109,347,000_null,0,0.01995262314968879,0,0.6250122230048873
109,348,200,0.04367181017736766,0.025118864315095794,1,0.5422970159997931
109,349,100,0.02183590508868383,0.02511886431509579,1,0.2957361980006681
109,350,400,0.08734362035473532,0.015848931924611127,0,0.38862056600191863
109,351,800,0.17468724070947064,0.015848931924611127,1,0.49377732599532465
109,352,200,0.04367181017736766,0.01995262314968879,1,0.3908984599984251
109,353,000,0,0.01995262314968879,1,0.3827324470039457
109,354,100,0.02183590508868383,0.01995262314968879,0,0.271347923000576
109,355,200,0.04367181017736766,0.015848931924611127,1,0.26468651599861914
109,356,100,0.02183590508868383,0.025118864315095794,0,0.39255789799790364
109,357,000,0,0.015848931924611127,0,0.4337733739957912
109,358,800,0.17468724070947064,0.012589254117941666,0,0.5225062960016658
109,359,400,0.08734362035473532,0.01995262314968879,0,0.5882978139998158
109,360,000,0,0.01995262314968879,0,0.4615601300029084
109,361,800,0.17468724070947064,0.015848931924611127,0,0.5100703919961234
109,362,100_null,0.02183590508868383,0.031622776601683784,0,0.355758967998554
109,363,200,0.04367181017736766,0.012589254117941666,0,0.36506678700243356
109,364,400,0.08734362035473532,0.025118864315095794,0,0.3651516169993556
109,365,100,0.02183590508868383,0.031622776601683784,0,0.350547390000429
109,366,400,0.08734362035473532,0.031622776601683784,1,0.36645418900297955
109,367,000,0,0.025118864315095794,1,0.3594627610000316
109,368,800,0.17468724070947064,0.01995262314968879,1,0.45573216100456193
109,369,200,0.04367181017736766,0.015848931924611127,1,0.42477462199894944
109,370,400_null,0.08734362035473532,0.02511886431509579,0,0.49933947200042894
109,371,000,0,0.01995262314968879,0,0.4288329299961333
109,372,200,0.04367181017736766,0.012589254117941666,0,0.3543844810046721
109,373,100,0.02183590508868383,0.03981071705534971,1,0.31411195200053044
109,374,800,0.17468724070947064,0.015848931924611127,1,0.4005615189962555
109,375,000,0,0.025118864315095794,0,0.41800652899837587
109,376,200,0.04367181017736766,0.015848931924611127,1,0.4659169490041677
109,377,800,0.17468724070947064,0.012589254117941666,0,0.3843793679989176
109,378,400_null,0.08734362035473532,0.02511886431509579,0,0.2814790299962624
109,379,100,0.02183590508868383,0.031622776601683784,1,0.322720627002127
109,380,800,0.17468724070947064,0.015848931924611127,0,0.36249633799889125
109,381,400,0.08734362035473532,0.02511886431509579,1,0.3235672329974477
109,382,100,0.02183590508868383,0.02511886431509579,1,0.4440219620009884
109,383,200,0.04367181017736766,0.012589254117941666,0,0.44547493899881374
109,384,000,0,0.031622776601683784,1,0.33342884499870706
109,385,800,0.17468724070947064,0.01995262314968879,1,0.5589958459968329
109,386,400,0.08734362035473532,0.01995262314968879,0,0.352673697998398
109,387,100,0.02183590508868383,0.01995262314968879,0,0.3495166540014907
109,388,000,0,0.02511886431509579,0,0.43108046400448075
109,389,200,0.04367181017736766,0.015848931924611127,1,0.39176418200077023
109,390,200,0.04367181017736766,0.012589254117941666,0,0.509184804999677
109,391,000_null,0,0.031622776601683784,1,0.31075220400089165
109,392,100,0.02183590508868383,0.025118864315095794,1,0.436748866995913
109,393,800,0.17468724070947064,0.015848931924611127,1,0.5018642830036697
109,394,400,0.08734362035473532,0.025118864315095794,1,0.38989402200240875
109,395,200,0.04367181017736766,0.015848931924611127,0,0.4948803700026474
109,396,100,0.02183590508868383,0.01995262314968879,0,0.4075299109972548
109,397,400,0.08734362035473532,0.01995262314968879,0,0.43466254100349033
109,398,800,0.17468724070947064,0.012589254117941666,0,0.5456874750016141
109,399,000,0,0.031622776601683784,1,0.3810855100018671
109,400,800,0.17468724070947064,0.015848931924611127,0,0.7095614780046162
109,401,200,0.04367181017736766,0.01995262314968879,1,0.48475026399682974
109,402,000,0,0.02511886431509579,1,0.34045182300178567
109,403,400,0.08734362035473532,0.025118864315095794,1,0.36428998799965484
109,404,100,0.02183590508868383,0.025118864315095794,0,0.43764479200035566
109,405,000,0,0.01995262314968879,0,0.3544362899992848
109,406,800_null,0.17468724070947064,0.01995262314968879,0,0.4681146310031181
109,407,100,0.02183590508868383,0.031622776601683784,1,0.3870301630013273
109,408,200,0.04367181017736766,0.015848931924611127,0,0.4911422000004677
109,409,400,0.08734362035473532,0.01995262314968879,0,0.5485717769988696
109,410,800,0.17468724070947064,0.01995262314968879,0,0.3966281100001652
109,411,200,0.04367181017736766,0.01995262314968879,1,0.41356919499958167
109,412,000,0,0.025118864315095794,0,0.19806113300001016
109,413,400,0.08734362035473532,0.025118864315095794,1,0.3852924210004858
109,414,100,0.02183590508868383,0.02511886431509579,1,0.31403653800225584
109,415,800,0.17468724070947064,0.025118864315095794,1,0.2903551339986734
109,416,100,0.02183590508868383,0.01995262314968879,0,0.4036552159959683
109,417,200,0.04367181017736766,0.015848931924611127,0,0.3527505630045198
109,418,400,0.08734362035473532,0.01995262314968879,0,0.3130513889991562
109,419,000,0,0.031622776601683784,0,0.3378429660006077
109,420,000,0,0.03981071705534971,1,0.2869643999947584
109,421,100,0.02183590508868383,0.025118864315095794,1,0.4163450289997854
109,422,200,0.04367181017736766,0.01995262314968879,0,0.5045614499977091
109,423,800,0.17468724070947064,0.01995262314968879,1,0.48057141699973727
109,424,400,0.08734362035473532,0.025118864315095794,1,0.552581732001272
109,425,200,0.04367181017736766,0.025118864315095794,1,0.3860228640041896
109,426,800,0.17468724070947064,0.015848931924611127,1,0.5222028190037236
109,427,000,0,0.031622776601683784,1,0.42745097499573603
109,428,100,0.02183590508868383,0.01995262314968879,1,0.4443213500053389
109,429,400,0.08734362035473532,0.01995262314968879,0,0.4935466769966297
109,430,100_null,0.02183590508868383,0.015848931924611127,0,0.4229549989977386
109,431,800,0.17468724070947064,0.012589254117941666,1,0.535044996002398
109,432,400,0.08734362035473532,0.025118864315095794,1,0.5784454849999747
109,433,000,0,0.02511886431509579,0,0.41513006199966185
109,434,200,0.04367181017736766,0.01995262314968879,1,0.327406124000845
109,435,800,0.17468724070947064,0.009999999999999995,0,0.4376546639978187
109,436,400,0.08734362035473532,0.01995262314968879,0,0.5580440100020496
109,437,000,0,0.031622776601683784,1,0.45460341299622087
109,438,200,0.04367181017736766,0.015848931924611127,1,0.49366626999835717
109,439,100,0.02183590508868383,0.015848931924611127,0,0.415065096996841
109,440,000,0,0.02511886431509579,0,0.2714901289946283
109,441,100_null,0.02183590508868383,0.01995262314968879,0,0.3846853409995674
109,442,400,0.08734362035473532,0.025118864315095794,1,0.46458716000051936
109,443,800,0.17468724070947064,0.012589254117941666,0,0.49114821900002426
109,444,200,0.04367181017736766,0.012589254117941666,0,0.5088151839954662
109,445,200,0.04367181017736766,0.015848931924611127,1,0.47490360999654513
109,446,000,0,0.031622776601683784,1,0.4283447409979999
109,447,100,0.02183590508868383,0.01995262314968879,1,0.477324569998018
109,448,800,0.17468724070947064,0.015848931924611127,1,0.523630192001292
109,449,400,0.08734362035473532,0.01995262314968879,1,0.5155572130024666
109,450,800,0.17468724070947064,0.012589254117941666,0,0.4896960059995763
109,451,000,0,0.02511886431509579,1,0.43390748200181406
109,452,200,0.04367181017736766,0.012589254117941666,0,0.5151552780007478
109,453,100,0.02183590508868383,0.015848931924611127,0,0.8105470680020517
109,454,400,0.08734362035473532,0.015848931924611127,1,0.5716447379963938
109,455,800,0.17468724070947064,0.015848931924611127,0,0.5086646290001227
109,456,100,0.02183590508868383,0.01995262314968879,0,0.5651358969989815
109,457,000,0,0.01995262314968879,0,0.43717489399568876
109,458,200,0.04367181017736766,0.015848931924611127,1,0.5045883290003985
109,459,400,0.08734362035473532,0.012589254117941666,1,0.5860053739961586
109,460,100,0.02183590508868383,0.025118864315095794,0,0.5054470340037369
109,461,800,0.17468724070947064,0.01995262314968879,0,0.4979538420011522
109,462,200,0.04367181017736766,0.012589254117941666,0,0.5470370289986022
109,463,000,0,0.025118864315095794,1,0.4882921550015453
109,464,400,0.08734362035473532,0.009999999999999995,0,0.5452449359945604
109,465,800,0.17468724070947064,0.025118864315095794,1,0.569187414002954
109,466,000,0,0.01995262314968879,1,0.5913598130064202
109,467,400,0.08734362035473532,0.012589254117941666,0,0.5284085359962774
109,468,200,0.04367181017736766,0.015848931924611127,1,0.5520044210061315
109,469,100,0.02183590508868383,0.031622776601683784,1,0.6009099060029257
109,470,800,0.17468724070947064,0.01995262314968879,0,0.6018588060032926
109,471,200,0.04367181017736766,0.012589254117941666,0,0.5623710139989271
109,472,400,0.08734362035473532,0.015848931924611127,0,0.7066251459982595
109,473,000,0,0.015848931924611127,1,0.5167285520001315
109,474,100,0.02183590508868383,0.02511886431509579,1,0.63856299300096
109,475,200,0.04367181017736766,0.015848931924611127,1,0.7434398170007626
109,476,000,0,0.012589254117941666,0,0.5740372750005918
109,477,100,0.02183590508868383,0.01995262314968879,1,0.4778357129980577
109,478,400,0.08734362035473532,0.01995262314968879,0,0.396640300998115
109,479,800,0.17468724070947064,0.025118864315095794,1,0.5088219580065925
109,480,100,0.02183590508868383,0.015848931924611127,0,0.8372261080003227
109,481,000_null,0,0.015848931924611127,0,0.4845676770055434
109,482,800,0.17468724070947064,0.01995262314968879,0,0.4843544790055603
109,483,200,0.04367181017736766,0.012589254117941666,1,0.429712320001272
109,484,400,0.08734362035473532,0.025118864315095794,1,0.41895986999588786
109,485,200,0.04367181017736766,0.009999999999999995,0,0.4840688889962621
109,486,400,0.08734362035473532,0.01995262314968879,1,0.49788441399869043
109,487,800_null,0.17468724070947064,0.025118864315095794,0,0.45071769599599065
109,488,000,0,0.015848931924611127,1,0.4114162830010173
109,489,100,0.02183590508868383,0.01995262314968879,1,0.5320962379992125
109,490,200,0.04367181017736766,0.012589254117941666,0,0.4449404689949006
109,491,100,0.02183590508868383,0.015848931924611127,0,0.4049269379975158
109,492,800_null,0.17468724070947064,0.025118864315095794,0,0.5732617890025722
109,493,000,0,0.012589254117941666,0,0.50249654900108
109,494,400,0.08734362035473532,0.015848931924611127,1,0.47161986400169553
109,495,200,0.04367181017736766,0.015848931924611127,0,0.6174119310016977
109,496,100,0.02183590508868383,0.01995262314968879,1,0.45044411499839043
109,497,800,0.17468724070947064,0.025118864315095794,1,0.4888021039951127
109,498,400_null,0.08734362035473532,0.012589254117941666,0,0.4022642359996098
109,499,000,0,0.015848931924611127,0,0.3274179309955798
109,500,800,0.17468724070947064,0.01995262314968879,1,0.4485259790017153
109,501,400,0.08734362035473532,0.012589254117941666,0,0.39254863100359216
109,502,200,0.04367181017736766,0.01995262314968879,0,0.34240057400165824
109,503,100,0.02183590508868383,0.015848931924611127,0,0.3835413369961316
109,504,000,0,0.01995262314968879,1,0.5038536069987458
109,505,400,0.08734362035473532,0.015848931924611127,1,0.5048587769997539
109,506,100,0.02183590508868383,0.01995262314968879,0,0.617532536998624
109,507,800,0.17468724070947064,0.015848931924611127,1,0.4746246550057549
109,508,200,0.04367181017736766,0.025118864315095794,1,0.5069473469993682
109,509,000,0,0.015848931924611127,0,0.5719309299965971
109,510,000,0,0.01995262314968879,0,0.47828618600033224
109,511,100,0.02183590508868383,0.025118864315095794,0,0.4150714150018757
109,512,200,0.04367181017736766,0.01995262314968879,0,0.4691213699989021
109,513,800,0.17468724070947064,0.012589254117941666,0,0.35823055999935605
109,514,400_null,0.08734362035473532,0.012589254117941666,0,0.41205223399447277
109,515,100,0.02183590508868383,0.031622776601683784,1,0.4205183939993731
109,516,200,0.04367181017736766,0.025118864315095794,1,0.454079950999585
109,517,000,0,0.025118864315095794,0,0.45109940199472476
109,518,400,0.08734362035473532,0.012589254117941666,0,0.4047106780053582
109,519,800_null,0.17468724070947064,0.015848931924611127,0,0.3254899270032183
109,520,000,0,0.031622776601683784,1,0.4293586779967882
109,521,400,0.08734362035473532,0.015848931924611127,0,0.5428778749992489
109,522,200,0.04367181017736766,0.01995262314968879,0,0.4628304109937744
109,523,800,0.17468724070947064,0.015848931924611127,1,0.527022930997191
109,524,100,0.02183590508868383,0.02511886431509579,1,0.48928384899772936
109,525,200_null,0.04367181017736766,0.025118864315095794,0,0.4337859120059875
109,526,800,0.17468724070947064,0.012589254117941666,0,0.4286458650021814
109,527,400,0.08734362035473532,0.01995262314968879,1,0.4739047179973568
109,528,000,0,0.02511886431509579,1,0.5148011369965388
109,529,100,0.02183590508868383,0.01995262314968879,0,0.3770846480038017
109,530,000,0,0.01995262314968879,0,0.3930486630051746
109,531,800_null,0.17468724070947064,0.015848931924611127,0,0.33756785500008846
109,532,100,0.02183590508868383,0.025118864315095794,0,0.4886435320004239
109,533,400,0.08734362035473532,0.015848931924611127,0,0.39236212499963585
109,534,200,0.04367181017736766,0.025118864315095794,1,0.36987111499911407
109,535,400,0.08734362035473532,0.01995262314968879,0,0.5062626079961774
109,536,000,0,0.025118864315095794,1,0.546518732997356
109,537,800,0.17468724070947064,0.015848931924611127,0,0.41105764399981126
109,538,200,0.04367181017736766,0.01995262314968879,0,0.30856122199475067
109,539,100,0.02183590508868383,0.031622776601683784,1,0.41267436699854443
109,540,800_null,0.17468724070947064,0.01995262314968879,0,0.38292123100109166
109,541,000_null,0,0.01995262314968879,0,0.3764954259968363
109,542,200,0.04367181017736766,0.025118864315095794,1,0.42981927899381844
109,543,400,0.08734362035473532,0.025118864315095794,1,0.39925186400068924
109,544,100,0.02183590508868383,0.02511886431509579,1,0.4396257600019453
109,545,000,0,0.01995262314968879,0,0.36535403299785685
109,546,400,0.08734362035473532,0.01995262314968879,1,0.4545332759953453
109,547,200,0.04367181017736766,0.01995262314968879,1,0.4049723629941582
109,548,800_null,0.17468724070947064,0.01995262314968879,0,0.4210986449979828
109,549,100,0.02183590508868383,0.01995262314968879,0,0.5183206309957313
109,550,200,0.04367181017736766,0.015848931924611127,0,0.5434890070027905
109,551,800,0.17468724070947064,0.01995262314968879,0,0.4954557550008758
109,552,400,0.08734362035473532,0.015848931924611127,0,0.47188756999821635
109,553,000,0,0.025118864315095794,1,0.4569210359986755
109,554,100,0.02183590508868383,0.025118864315095794,1,0.6341323250017012
109,555,400,0.08734362035473532,0.01995262314968879,1,0.5958852299954742
109,556,800,0.17468724070947064,0.025118864315095794,1,0.685708880002494
109,557,200_null,0.04367181017736766,0.01995262314968879,0,0.5469789150010911
109,558,100,0.02183590508868383,0.01995262314968879,0,0.4514308399957372
109,559,000,0,0.01995262314968879,0,0.5165943959946162
109,560,800_null,0.17468724070947064,0.01995262314968879,0,0.5138022050014115
109,561,400,0.08734362035473532,0.015848931924611127,1,0.4432490140025038
109,562,100,0.02183590508868383,0.025118864315095794,1,0.5930489389938884
109,563,200,0.04367181017736766,0.01995262314968879,0,0.6101077189960051
109,564,000_null,0,0.025118864315095794,0,0.4422656770038884
109,565,000,0,0.025118864315095794,0,0.5078909460062278
109,566,200,0.04367181017736766,0.025118864315095794,1,0.5075863429956371
109,567,100,0.02183590508868383,0.01995262314968879,1,0.6632361560041318
109,568,400,0.08734362035473532,0.012589254117941666,0,0.6380818530014949
109,569,800,0.17468724070947064,0.01995262314968879,0,0.7437856189935701
109,570,200,0.04367181017736766,0.01995262314968879,1,0.7290124040009687
109,571,100,0.02183590508868383,0.015848931924611127,1,0.6346208070026478
109,572,400,0.08734362035473532,0.015848931924611127,0,0.6480668200019863
109,573,000,0,0.031622776601683784,1,0.5369708920043195
109,574,800,0.17468724070947064,0.025118864315095794,1,0.6493548060025205
109,575,400,0.08734362035473532,0.01995262314968879,0,0.47140463299729163
109,576,800,0.17468724070947064,0.01995262314968879,1,0.527888532000361
109,577,100,0.02183590508868383,0.012589254117941666,0,0.4706288779998431
109,578,000,0,0.02511886431509579,0,0.3516260100004729
109,579,200,0.04367181017736766,0.015848931924611127,1,0.4399281689984491
109,580,000,0,0.031622776601683784,1,0.5051519179978641
109,581,100_null,0.02183590508868383,0.015848931924611127,0,0.4968139880002127
109,582,200,0.04367181017736766,0.012589254117941666,0,0.4025786769998376
109,583,800,0.17468724070947064,0.015848931924611127,1,0.4836485530031496
109,584,400,0.08734362035473532,0.025118864315095794,1,0.48707345799630275
109,585,400,0.08734362035473532,0.01995262314968879,1,0.45513995100191096
109,586,200_null,0.04367181017736766,0.015848931924611127,1,0.623295279998274
109,587,800,0.17468724070947064,0.012589254117941666,1,0.47428505499556195
109,588,000,0,0.02511886431509579,0,0.5596992120044888
109,589,100,0.02183590508868383,0.015848931924611127,0,0.6714593739961856
109,590,200,0.04367181017736766,0.015848931924611127,0,0.6295164819966885
109,591,000,0,0.031622776601683784,1,0.5576046520000091
109,592,800,0.17468724070947064,0.009999999999999995,1,0.6869876209966606
109,593,400,0.08734362035473532,0.015848931924611127,0,0.6222821890041814
109,594,100_null,0.02183590508868383,0.01995262314968879,0,0.5510406120010884
109,595,800,0.17468724070947064,0.00794328234724281,0,0.6953971339971758
109,596,100,0.02183590508868383,0.01995262314968879,1,0.7606431749954936
109,597,400,0.08734362035473532,0.01995262314968879,0,0.7369757210035459
109,598,000,0,0.02511886431509579,1,0.6501174270015326
109,599,200,0.04367181017736766,0.01995262314968879,1,0.9175608910009032
109,600,800,0.17468724070947064,0.009999999999999995,1,0.5783468310037279
109,601,000_null,0,0.01995262314968879,0,0.28445335300057195
109,602,400,0.08734362035473532,0.025118864315095794,1,0.4686899419975816
109,603,200,0.04367181017736766,0.015848931924611127,1,0.5509318050026195
109,604,100,0.02183590508868383,0.015848931924611127,1,0.516496256001119
109,605,800,0.17468724070947064,0.00794328234724281,0,0.5490324080019491
109,606,200,0.04367181017736766,0.012589254117941666,1,0.5712860780040501
109,607,400,0.08734362035473532,0.01995262314968879,0,0.5723263819963904
109,608,100,0.02183590508868383,0.012589254117941666,1,0.5563795100024436
109,609,000,0,0.01995262314968879,0,0.6343583760026377
109,610,400,0.08734362035473532,0.025118864315095794,1,0.5958514950034441
109,611,100,0.02183590508868383,0.009999999999999995,0,0.5306712179954047
109,612,000_null,0,0.025118864315095794,0,0.5473435040039476
109,613,200_null,0.04367181017736766,0.009999999999999995,0,0.6362909980016411
109,614,800,0.17468724070947064,0.009999999999999995,0,0.5083505200018408
109,615,200,0.04367181017736766,0.009999999999999995,0,0.6612667260051239
109,616,800,0.17468724070947064,0.012589254117941666,0,0.7268683500005864
109,617,400_null,0.08734362035473532,0.01995262314968879,0,0.664954067004146
109,618,000,0,0.025118864315095794,1,0.6014936999999918
109,619,100,0.02183590508868383,0.012589254117941666,1,0.7198794530049781
109,620,800,0.17468724070947064,0.015848931924611127,1,0.6641623210016405
109,621,100,0.02183590508868383,0.009999999999999995,0,0.521776116998808
109,622,000,0,0.01995262314968879,0,0.4627102369995555
109,623,400,0.08734362035473532,0.01995262314968879,0,0.5593454940026277
109,624,200,0.04367181017736766,0.012589254117941666,0,0.5260256490000756
109,625,800,0.17468724070947064,0.012589254117941666,1,0.4622898539964808
109,626,000,0,0.025118864315095794,0,0.5513819749976392
109,627,200,0.04367181017736766,0.015848931924611127,0,0.5826773919980042
109,628,400,0.08734362035473532,0.025118864315095794,1,0.5916018259958946
109,629,100,0.02183590508868383,0.012589254117941666,0,0.5279402710002614
109,630,000,0,0.031622776601683784,1,0.5051067780004814
109,631,400,0.08734362035473532,0.01995262314968879,1,0.6342884109981242
109,632,200,0.04367181017736766,0.01995262314968879,1,0.7955590450001182
109,633,100,0.02183590508868383,0.015848931924611127,1,0.7725452209997457
109,634,800,0.17468724070947064,0.009999999999999995,0,0.7477538820021437
109,635,100,0.02183590508868383,0.012589254117941666,0,0.5327979400026379
109,636,800,0.17468724070947064,0.012589254117941666,0,0.4607467509995331
109,637,000,0,0.02511886431509579,1,0.43476429099973757
109,638,200,0.04367181017736766,0.015848931924611127,1,0.4909188149977126
109,639,400,0.08734362035473532,0.015848931924611127,1,0.5296125470049446
109,640,800,0.17468724070947064,0.015848931924611127,0,0.5375976169962087
109,641,200,0.04367181017736766,0.012589254117941666,0,0.5704582589969505
109,642,400,0.08734362035473532,0.012589254117941666,1,0.594713441998465
109,643,000,0,0.01995262314968879,1,0.7480350850019022
109,644,100,0.02183590508868383,0.015848931924611127,1,0.6761721130023943
109,645,800,0.17468724070947064,0.01995262314968879,0,0.7013193399980082
109,646,100,0.02183590508868383,0.012589254117941666,0,0.829730302997632
109,647,200,0.04367181017736766,0.015848931924611127,0,0.8878902649958036
109,648,000,0,0.015848931924611127,1,0.7522349179998855
109,649,400,0.08734362035473532,0.009999999999999995,0,0.7600237500009825
109,650,000,0,0.012589254117941666,0,0.8490821039958973
109,651,100,0.02183590508868383,0.015848931924611127,0,0.7852321890022722
109,652,400,0.08734362035473532,0.012589254117941666,1,0.8233439339965116
109,653,200,0.04367181017736766,0.01995262314968879,0,0.6872892700048396
109,654,800,0.17468724070947064,0.025118864315095794,1,0.6615275149961235
109,655,000,0,0.015848931924611127,0,0.6950799059995916
109,656,400,0.08734362035473532,0.009999999999999995,0,0.806788781999785
109,657,100,0.02183590508868383,0.01995262314968879,1,0.6392463629963459
109,658,800,0.17468724070947064,0.01995262314968879,1,0.8165161340002669
109,659,200,0.04367181017736766,0.025118864315095794,1,0.6805629820009926
109,660,000_null,0,0.01995262314968879,0,0.6656116290032514
109,661,400,0.08734362035473532,0.012589254117941666,0,0.6661389419969055
109,662,800,0.17468724070947064,0.015848931924611127,1,0.7482899740061839
109,663,100,0.02183590508868383,0.015848931924611127,0,0.7887725839973427
109,664,200,0.04367181017736766,0.01995262314968879,0,0.90308398000343
109,665,400,0.08734362035473532,0.015848931924611127,1,0.7725138140012859
109,666,800,0.17468724070947064,0.012589254117941666,0,0.7337798439984908
109,667,000_null,0,0.01995262314968879,0,0.7232155249948846
109,668,200,0.04367181017736766,0.025118864315095794,1,0.7159687549938099
109,669,100,0.02183590508868383,0.01995262314968879,0,0.7558564339997247
109,670,000,0,0.01995262314968879,1,0.6502758890055702
109,671,800,0.17468724070947064,0.015848931924611127,1,0.730772054004774
109,672,400,0.08734362035473532,0.012589254117941666,0,0.6833627349988092
109,673,200,0.04367181017736766,0.01995262314968879,1,0.6035692260047654
109,674,100,0.02183590508868383,0.025118864315095794,1,0.4364096650024294
109,675,200,0.04367181017736766,0.015848931924611127,0,0.7490380949966493
109,676,100,0.02183590508868383,0.01995262314968879,0,0.558221567000146
109,677,000,0,0.015848931924611127,0,0.7354242449946469
109,678,800,0.17468724070947064,0.012589254117941666,0,0.7295945799996844
109,679,400,0.08734362035473532,0.015848931924611127,1,0.8188537999958498
109,680,400,0.08734362035473532,0.012589254117941666,0,0.8811207349936012
109,681,800,0.17468724070947064,0.015848931924611127,0,1.0250468220037874
109,682,000,0,0.01995262314968879,0,0.8310327979997965
109,683,100,0.02183590508868383,0.025118864315095794,1,0.6082617880019825
109,684,200,0.04367181017736766,0.01995262314968879,0,0.6168214779972914
109,685,100,0.02183590508868383,0.01995262314968879,0,0.558457738996367
109,686,000,0,0.025118864315095794,0,0.78358462399774
109,687,800,0.17468724070947064,0.01995262314968879,0,0.6397989299948676
109,688,400,0.08734362035473532,0.015848931924611127,1,0.6414778889957233
109,689,200,0.04367181017736766,0.025118864315095794,1,0.5292597359948559
109,690,800_null,0.17468724070947064,0.025118864315095794,0,0.5146042069973191
109,691,000_null,0,0.031622776601683784,0,0.5064215659949696
109,692,200,0.04367181017736766,0.01995262314968879,1,0.5329982359980932
109,693,400,0.08734362035473532,0.012589254117941666,0,0.5905858730038744
109,694,100_null,0.02183590508868383,0.025118864315095794,0,0.5034776169995894
109,695,400,0.08734362035473532,0.015848931924611127,0,0.6700479089995497
109,696,000,0,0.031622776601683784,1,0.6705651090014726
109,697,800,0.17468724070947064,0.025118864315095794,1,0.7409131499953219
109,698,100,0.02183590508868383,0.025118864315095794,0,0.7330594909944921
109,699,200,0.04367181017736766,0.015848931924611127,1,0.5501393730010022
109,700,200_null,0.04367181017736766,0.012589254117941666,0,0.5238543160012341
109,701,100,0.02183590508868383,0.031622776601683784,0,0.25334261999523733
109,702,000,0,0.02511886431509579,0,0.6053980209981091
109,703,400_null,0.08734362035473532,0.01995262314968879,0,0.7908503319995361
109,704,800,0.17468724070947064,0.01995262314968879,0,0.814874987998337
109,705,100,0.02183590508868383,0.03981071705534971,1,0.8636206109949853
109,706,200,0.04367181017736766,0.012589254117941666,0,0.8078333560042665
109,707,400,0.08734362035473532,0.01995262314968879,0,0.6812281199963763
109,708,000,0,0.031622776601683784,1,0.6586799270007759
109,709,800,0.17468724070947064,0.025118864315095794,1,0.7476860999959172
109,710,000_null,0,0.02511886431509579,0,0.7939188359960099
109,711,800,0.17468724070947064,0.01995262314968879,0,0.762761773999955
109,712,100,0.02183590508868383,0.031622776601683784,1,0.6588804099956178
109,713,200_null,0.04367181017736766,0.015848931924611127,0,0.6969298959957086
109,714,400,0.08734362035473532,0.025118864315095794,1,0.6173144900021725
109,715,200,0.04367181017736766,0.015848931924611127,0,0.6239793650020147
109,716,800_null,0.17468724070947064,0.025118864315095794,0,0.7127384820050793
109,717,400,0.08734362035473532,0.01995262314968879,1,0.6499435860023368
109,718,000,0,0.02511886431509579,1,0.6980524020036682
109,719,100,0.02183590508868383,0.02511886431509579,1,0.586328550001781
109,720,800,0.17468724070947064,0.025118864315095794,1,0.6248841500055278
109,721,200_null,0.04367181017736766,0.01995262314968879,0,0.5607010280000395
109,722,100,0.02183590508868383,0.01995262314968879,0,0.5298483309961739
109,723,400,0.08734362035473532,0.015848931924611127,1,0.7229776809981558
109,724,000,0,0.01995262314968879,1,0.6430026759990142
109,725,800,0.17468724070947064,0.01995262314968879,0,0.7174942440033192
109,726,100,0.02183590508868383,0.025118864315095794,0,0.6464403369973297
109,727,200,0.04367181017736766,0.01995262314968879,1,0.6594975410043844
109,728,400,0.08734362035473532,0.012589254117941666,1,0.7166415120009333
109,729,000,0,0.015848931924611127,0,0.563071434997255
109,730,000,0,0.01995262314968879,0,0.7630579710021266
109,731,200,0.04367181017736766,0.015848931924611127,0,0.7802608639976825
109,732,800,0.17468724070947064,0.025118864315095794,1,0.7551489990000846
109,733,100,0.02183590508868383,0.031622776601683784,1,0.5877013950012042
109,734,400,0.08734362035473532,0.009999999999999995,0,0.5326927150017582
109,735,000,0,0.025118864315095794,0,0.6207281660026638
109,736,400,0.08734362035473532,0.012589254117941666,1,0.9329630959982751
109,737,100,0.02183590508868383,0.02511886431509579,0,0.8644025739995413
109,738,200,0.04367181017736766,0.01995262314968879,0,0.7374228699991363
109,739,800,0.17468724070947064,0.01995262314968879,1,0.6474988689951715
109,740,400,0.08734362035473532,0.009999999999999995,0,0.6269411600005697
109,741,100,0.02183590508868383,0.031622776601683784,1,0.5239407179979025
109,742,800,0.17468724070947064,0.015848931924611127,0,0.7121207240052172
109,743,200,0.04367181017736766,0.025118864315095794,1,0.7046881339992979
109,744,000,0,0.031622776601683784,1,0.7111562029967899
109,745,000_null,0,0.02511886431509579,0,0.6158367609968991
109,746,200,0.04367181017736766,0.01995262314968879,0,0.648614127007022
109,747,400,0.08734362035473532,0.012589254117941666,1,0.7437598550022813
109,748,100,0.02183590508868383,0.02511886431509579,1,0.7761299159974442
109,749,800,0.17468724070947064,0.01995262314968879,1,0.769224158997531
109,750,200,0.04367181017736766,0.025118864315095794,1,0.913275540995528
109,751,800,0.17468724070947064,0.015848931924611127,0,0.7785571499989601
109,752,000,0,0.02511886431509579,0,0.7795654349974939
109,753,400,0.08734362035473532,0.009999999999999995,1,0.7005479590006871
109,754,100,0.02183590508868383,0.01995262314968879,0,0.5959291370018036
109,755,400,0.08734362035473532,0.00794328234724281,0,0.6632135600011679
109,756,100,0.02183590508868383,0.025118864315095794,0,0.7445734469947638
109,757,000_null,0,0.031622776601683784,0,0.5495668829971692
109,758,800,0.17468724070947064,0.01995262314968879,0,0.7576096350021544
109,759,200,0.04367181017736766,0.01995262314968879,1,0.5878805429965723
109,760,100,0.02183590508868383,0.031622776601683784,1,0.6037382829963462
109,761,400,0.08734362035473532,0.009999999999999995,0,0.7652139450001414
109,762,000,0,0.031622776601683784,1,0.6523696000003838
109,763,800,0.17468724070947064,0.025118864315095794,1,0.5729813299985835
109,764,200,0.04367181017736766,0.015848931924611127,1,0.6052222340003937
109,765,000,0,0.02511886431509579,1,0.5587767350007198
109,766,200,0.04367181017736766,0.012589254117941666,0,0.5828284210001584
109,767,100,0.02183590508868383,0.02511886431509579,0,0.6560051310007111
109,768,800,0.17468724070947064,0.01995262314968879,1,0.6352681249991292
109,769,400,0.08734362035473532,0.012589254117941666,1,0.9302465169967036
109,770,400,0.08734362035473532,0.009999999999999995,0,0.5633505870064255
109,771,000,0,0.01995262314968879,0,0.6528118080022978
109,772,100,0.02183590508868383,0.031622776601683784,1,0.41065347899711924
109,773,800,0.17468724070947064,0.015848931924611127,0,0.45908163199783303
109,774,200_null,0.04367181017736766,0.015848931924611127,0,0.5799159650050569
109,775,000,0,0.025118864315095794,1,0.44246937499701744
109,776,400,0.08734362035473532,0.012589254117941666,1,0.5144736879956326
109,777,800,0.17468724070947064,0.01995262314968879,1,0.4986997000014526
109,778,200,0.04367181017736766,0.015848931924611127,1,0.6984472469994216
109,779,100,0.02183590508868383,0.02511886431509579,0,0.5799013449941413
109,780,400,0.08734362035473532,0.009999999999999995,0,0.6843725680009811
109,781,200,0.04367181017736766,0.012589254117941666,0,0.6452537430013763
109,782,100,0.02183590508868383,0.031622776601683784,1,0.6156891999999061
109,783,800,0.17468724070947064,0.015848931924611127,1,0.6003265480030677
109,784,000,0,0.01995262314968879,0,0.5223412760024075
109,785,200_null,0.04367181017736766,0.015848931924611127,0,0.5599904030023026
109,786,100,0.02183590508868383,0.02511886431509579,0,0.5770831350018852
109,787,400,0.08734362035473532,0.012589254117941666,0,0.5578312180005014
109,788,800,0.17468724070947064,0.012589254117941666,0,0.5510047510033473
109,789,000,0,0.025118864315095794,0,0.6472145389998332
109,790,000_null,0,0.031622776601683784,0,0.5416395470019779
109,791,800,0.17468724070947064,0.015848931924611127,1,0.565851022998686
109,792,100,0.02183590508868383,0.031622776601683784,1,0.4930776239998522
109,793,400,0.08734362035473532,0.015848931924611127,0,0.5982309929968324
109,794,200,0.04367181017736766,0.015848931924611127,0,0.5830525720011792
109,795,100,0.02183590508868383,0.02511886431509579,1,0.6553718499999377
109,796,800,0.17468724070947064,0.012589254117941666,0,0.48059250300138956
109,797,200,0.04367181017736766,0.01995262314968879,1,0.5379248569952324
109,798,400,0.08734362035473532,0.01995262314968879,1,0.6111443550034892
109,799,000,0,0.031622776601683784,1,0.6615207609938807
109,800,400,0.08734362035473532,0.015848931924611127,1,0.5791261390040745
109,801,200,0.04367181017736766,0.015848931924611127,0,0.5485593600024004
109,802,800,0.17468724070947064,0.015848931924611127,0,0.6427342309980304
109,803,000,0,0.02511886431509579,0,0.6024946570032625
109,804,100,0.02183590508868383,0.01995262314968879,0,0.6040443140009302
109,805,400,0.08734362035473532,0.012589254117941666,0,0.6326756439957535
109,806,200,0.04367181017736766,0.01995262314968879,1,0.6341341180013842
109,807,100,0.02183590508868383,0.025118864315095794,1,0.5221237680016202
109,808,800,0.17468724070947064,0.01995262314968879,1,0.5545369530009339
109,809,000,0,0.031622776601683784,1,0.643577650997031
109,810,100,0.02183590508868383,0.01995262314968879,0,0.6998794079991058
109,811,000,0,0.02511886431509579,0,0.5970470630054479
109,812,400,0.08734362035473532,0.015848931924611127,0,0.47006885199516546
109,813,800,0.17468724070947064,0.015848931924611127,0,0.3205793770030141
109,814,200,0.04367181017736766,0.015848931924611127,0,0.47298816699913004
109,815,200,0.04367181017736766,0.01995262314968879,0,0.3998830810014624
109,816,400,0.08734362035473532,0.01995262314968879,0,0.5120563370001037
109,817,800_null,0.17468724070947064,0.01995262314968879,0,0.6088870240055257
109,818,000,0,0.031622776601683784,1,0.6139875579974614
109,819,100,0.02183590508868383,0.025118864315095794,1,0.5352773089980474
109,820,000,0,0.02511886431509579,1,0.5012963999979547
109,821,200,0.04367181017736766,0.025118864315095794,1,0.5813798360031797
109,822,400,0.08734362035473532,0.025118864315095794,1,0.6949682289996417
109,823,100,0.02183590508868383,0.01995262314968879,1,0.4146631740004523
109,824,800_null,0.17468724070947064,0.01995262314968879,0,0.47192822999932105
109,825,800,0.17468724070947064,0.01995262314968879,0,0.6960537359991577
109,826,000,0,0.01995262314968879,0,0.5524907889994211
109,827,200,0.04367181017736766,0.01995262314968879,1,0.5216833219965338
109,828,100,0.02183590508868383,0.015848931924611127,1,0.5309246520046145
109,829,400,0.08734362035473532,0.01995262314968879,0,0.6524211979995016
109,830,800,0.17468724070947064,0.025118864315095794,1,0.602442871000676
109,831,200,0.04367181017736766,0.015848931924611127,1,0.5790199100010796
109,832,100,0.02183590508868383,0.012589254117941666,0,0.563439469995501
109,833,400,0.08734362035473532,0.025118864315095794,1,0.6015981759992428
109,834,000,0,0.025118864315095794,0,0.6745504979990073
109,835,400,0.08734362035473532,0.01995262314968879,1,0.7198102469992591
109,836,000,0,0.031622776601683784,1,0.6091811829974176
109,837,200,0.04367181017736766,0.012589254117941666,0,0.7212872710006195
109,838,100,0.02183590508868383,0.015848931924611127,0,0.7624467019995791
109,839,800,0.17468724070947064,0.01995262314968879,0,0.842822996994073
