id,trial,label,FC,TC,response,RT
111,0,000,0,0.1,1,0.4529225329970359
111,1,200,0.053919707285675904,0.1,1,0.2609524200015585
111,2,100,0.026959853642837952,0.1,1,0.21913726499769837
111,3,800,0.21567882914270362,0.1,1,0.1948616219960968
111,4,400,0.10783941457135181,0.1,1,0.18034845199872507
111,5,000,0,0.07943282347242815,1,0.15331550699920626
111,6,800,0.21567882914270362,0.07943282347242815,1,0.22680772400053684
111,7,100,0.026959853642837952,0.07943282347242815,1,0.23279529799765442
111,8,200,0.053919707285675904,0.07943282347242815,1,0.19397081900388002
111,9,400,0.10783941457135181,0.07943282347242815,1,0.1390574059987557
111,10,400,0.10783941457135181,0.06309573444801932,1,0.12328135099960491
111,11,200,0.053919707285675904,0.06309573444801932,1,0.13255191299685976
111,12,800,0.21567882914270362,0.06309573444801932,1,0.06843577700055903
111,13,000,0,0.06309573444801932,1,0.13289403099770425
111,14,100,0.026959853642837952,0.06309573444801932,1,0.24702067399630323
111,15,200,0.053919707285675904,0.05011872336272722,1,0.18418173200188903
111,16,800,0.21567882914270362,0.05011872336272722,1,0.17605063899827655
111,17,100,0.026959853642837952,0.05011872336272722,1,0.20953515500150388
111,18,000,0,0.05011872336272722,0,99
111,19,400_null,0.10783941457135181,0.05011872336272722,0,99
111,20,800,0.21567882914270362,0.03981071705534971,1,0.32373743299831403
111,21,400,0.10783941457135181,0.05011872336272722,1,0.23694937500113156
111,22,100,0.026959853642837952,0.03981071705534971,1,0.26126028100406984
111,23,200_null,0.053919707285675904,0.03981071705534971,1,0.34050244399986695
111,24,000,0,0.06309573444801932,1,0.5013313210001797
111,25,200,0.053919707285675904,0.03981071705534971,1,0.33388131999527104
111,26,100,0.026959853642837952,0.031622776601683784,1,0.2787321369978599
111,27,000,0,0.05011872336272722,1,0.23096200600411976
111,28,800,0.21567882914270362,0.031622776601683784,1,0.2183953690037015
111,29,400,0.10783941457135181,0.03981071705534971,1,0.28353862799849594
111,30,400,0.10783941457135181,0.031622776601683784,1,0.20349329699820373
111,31,000,0,0.03981071705534971,1,0.3818452569976216
111,32,200,0.053919707285675904,0.031622776601683784,1,0.24695161300041946
111,33,800,0.21567882914270362,0.02511886431509579,1,0.1388499349995982
111,34,100,0.026959853642837952,0.02511886431509579,1,0.2916455490048975
111,35,400,0.10783941457135181,0.02511886431509579,1,0.17785622999508632
111,36,000,0,0.031622776601683784,0,0.4185277440046775
111,37,800,0.21567882914270362,0.01995262314968879,1,0.3478149919974385
111,38,100,0.026959853642837952,0.01995262314968879,0,0.5945010959985666
111,39,200,0.053919707285675904,0.02511886431509579,0,0.4106221409965656
111,40,100,0.026959853642837952,0.025118864315095794,0,0.396049253999081
111,41,200,0.053919707285675904,0.031622776601683784,1,0.31741382199834334
111,42,800,0.21567882914270362,0.015848931924611127,0,0.2451585070011788
111,43,400,0.10783941457135181,0.01995262314968879,1,0.45582616700266954
111,44,000,0,0.03981071705534971,1,0.5617771079996601
111,45,400,0.10783941457135181,0.015848931924611127,0,0.2970751510001719
111,46,200,0.053919707285675904,0.02511886431509579,1,0.4982705200018245
111,47,800,0.21567882914270362,0.01995262314968879,1,0.2936057780025294
111,48,100,0.026959853642837952,0.031622776601683784,1,0.5133442310034297
111,49,000,0,0.031622776601683784,1,0.522277463998762
111,50,100,0.026959853642837952,0.02511886431509579,0,0.392433353998058
111,51,400,0.10783941457135181,0.01995262314968879,1,0.4168889160064282
111,52,800,0.21567882914270362,0.015848931924611127,1,0.18602100800490007
111,53,000,0,0.02511886431509579,1,0.3692046020005364
111,54,200,0.053919707285675904,0.01995262314968879,1,0.3704674149994389
111,55,000,0,0.01995262314968879,0,0.25053517799824476
111,56,100,0.026959853642837952,0.031622776601683784,1,0.4198175969941076
111,57,200_null,0.053919707285675904,0.015848931924611127,0,0.3554291260006721
111,58,400,0.10783941457135181,0.015848931924611127,0,0.26223867200315
111,59,800,0.21567882914270362,0.012589254117941666,0,0.27935982099734247
111,60,200,0.053919707285675904,0.015848931924611127,0,0.24034906100132503
111,61,100,0.026959853642837952,0.02511886431509579,1,0.4075679529996705
111,62,400,0.10783941457135181,0.01995262314968879,0,0.48051857099926565
111,63,000_null,0,0.025118864315095794,0,0.6305587020033272
111,64,800,0.21567882914270362,0.015848931924611127,1,0.4386110400009784
111,65,000,0,0.025118864315095794,0,0.42316721299721394
111,66,100,0.026959853642837952,0.01995262314968879,1,0.405216234998079
111,67,800,0.21567882914270362,0.012589254117941666,1,0.6062575989999459
111,68,200,0.053919707285675904,0.01995262314968879,1,0.6855940530003863
111,69,400,0.10783941457135181,0.025118864315095794,0,0.39034136299596867
111,70,400,0.10783941457135181,0.031622776601683784,0,0.5117873259951011
111,71,800,0.21567882914270362,0.009999999999999995,1,0.5197883809960331
111,72,200,0.053919707285675904,0.015848931924611127,0,0.5042117379998672
111,73,100,0.026959853642837952,0.015848931924611127,0,0.35462558499420993
111,74,000,0,0.031622776601683784,0,0.755532798000786
111,75,400,0.10783941457135181,0.03981071705534971,1,0.42256159400130855
111,76,100,0.026959853642837952,0.01995262314968879,0,0.32491829399805283
111,77,800,0.21567882914270362,0.00794328234724281,0,0.2539293040026678
111,78,000,0,0.03981071705534971,1,0.7711508040010813
111,79,200,0.053919707285675904,0.01995262314968879,1,0.3480971330063767
111,80,800,0.21567882914270362,0.009999999999999995,1,0.2840814360024524
111,81,000,0,0.031622776601683784,1,0.5864521859984961
111,82,100,0.026959853642837952,0.025118864315095794,0,0.3066842929983977
111,83,200,0.053919707285675904,0.015848931924611127,0,0.32283618800283875
111,84,400,0.10783941457135181,0.031622776601683784,0,0.25200867900275625
111,85,400,0.10783941457135181,0.03981071705534971,1,0.41972221699688816
111,86,800,0.21567882914270362,0.00794328234724281,0,0.34943257000122685
111,87,200,0.053919707285675904,0.01995262314968879,0,0.39740455700666644
111,88,100,0.026959853642837952,0.031622776601683784,0,0.3348328330030199
111,89,000,0,0.02511886431509579,1,0.33681636600522324
111,90,100,0.026959853642837952,0.03981071705534971,0,0.29124581400537863
111,91,000,0,0.01995262314968879,0,0.425304356002016
111,92,400,0.10783941457135181,0.031622776601683784,0,0.34500403099809773
111,93,800,0.21567882914270362,0.009999999999999995,1,0.14368981400184566
111,94,200,0.053919707285675904,0.025118864315095794,0,0.295793383003911
111,95,100,0.026959853642837952,0.05011872336272721,0,0.3845651270021335
111,96,000,0,0.025118864315095794,0,0.40598537199548446
111,97,800,0.21567882914270362,0.00794328234724281,1,0.30335059500066563
111,98,200,0.053919707285675904,0.031622776601683784,1,0.38328468399413396
111,99,400,0.10783941457135181,0.03981071705534971,1,0.4081104340002639
111,100,100,0.026959853642837952,0.0630957344480193,1,0.27239838199602673
111,101,400,0.10783941457135181,0.031622776601683784,0,0.19381265999982134
111,102,800_null,0.21567882914270362,0.0063095734448019285,1,0.2579609599997639
111,103,000,0,0.031622776601683784,0,99
111,104,200,0.053919707285675904,0.02511886431509579,0,0.33137230500142323
111,105,200,0.053919707285675904,0.031622776601683784,0,0.31723360199976014
111,106,000,0,0.03981071705534971,1,0.491670923998754
111,107,800_null,0.21567882914270362,0.0063095734448019285,0,0.42763201300112996
111,108,100,0.026959853642837952,0.050118723362727206,1,0.42782279400125844
111,109,400,0.10783941457135181,0.03981071705534971,1,0.3379356479999842
111,110,000,0,0.031622776601683784,0,0.5069879200018477
111,111,800,0.21567882914270362,0.0063095734448019285,0,0.9682376170021598
111,112,100,0.026959853642837952,0.039810717055349706,1,0.46446787899913033
111,113,200,0.053919707285675904,0.03981071705534971,1,0.25000340300175594
111,114,400_null,0.10783941457135181,0.031622776601683784,0,0.3619180609966861
111,115,400,0.10783941457135181,0.031622776601683784,0,0.8030244890032918
111,116,800,0.21567882914270362,0.00794328234724281,0,0.32326611199823674
111,117,000,0,0.03981071705534971,0,0.39496541399421403
111,118,200,0.053919707285675904,0.031622776601683784,1,0.28462230500008445
111,119,100,0.026959853642837952,0.03162277660168378,1,0.32578706499771215
111,120,100,0.026959853642837952,0.025118864315095787,0,0.8527063389992691
111,121,200,0.053919707285675904,0.02511886431509579,0,0.526226592999592
111,122,400,0.10783941457135181,0.03981071705534971,0,0.4800012759951642
111,123,000,0,0.05011872336272721,0,0.6496044229934341
111,124,800,0.21567882914270362,0.009999999999999995,0,0.3875492520019179
111,125,800,0.21567882914270362,0.012589254117941666,0,0.23275582999485778
111,126,000_null,0,0.0630957344480193,0,0.4408109509968199
111,127,400,0.10783941457135181,0.05011872336272721,1,0.31109501799801365
111,128,100,0.026959853642837952,0.03162277660168378,0,0.34435492099873954
111,129,200,0.053919707285675904,0.031622776601683784,0,0.28836956300074235
111,130,400,0.10783941457135181,0.03981071705534971,1,0.33526313999755075
111,131,800,0.21567882914270362,0.015848931924611127,1,0.4877668330009328
111,132,200,0.053919707285675904,0.03981071705534971,1,0.3045936199996504
111,133,100_null,0.026959853642837952,0.039810717055349706,0,0.40888607999659143
111,134,000,0,0.0630957344480193,1,0.3620131580028101
111,135,100,0.026959853642837952,0.039810717055349706,0,0.19528347400046187
111,136,000,0,0.050118723362727206,0,0.2927320890012197
111,137,800,0.21567882914270362,0.012589254117941666,1,0.2458761300003971
111,138,400,0.10783941457135181,0.031622776601683784,1,0.4388962119992357
111,139,200,0.053919707285675904,0.031622776601683784,1,0.22301905299536884
111,140,800,0.21567882914270362,0.009999999999999995,0,0.23694880500261206
111,141,400,0.10783941457135181,0.02511886431509579,1,0.573283679994347
111,142,100,0.026959853642837952,0.050118723362727206,1,0.26736885299760615
111,143,200_null,0.053919707285675904,0.02511886431509579,0,0.34876603900193004
111,144,000,0,0.0630957344480193,0,0.3728246929968009
111,145,400,0.10783941457135181,0.01995262314968879,0,0.3957480349999969
111,146,200,0.053919707285675904,0.02511886431509579,1,0.3730947149961139
111,147,100,0.026959853642837952,0.039810717055349706,1,0.28530606599815655
111,148,800,0.21567882914270362,0.012589254117941666,0,0.3337755879983888
111,149,000,0,0.07943282347242812,1,0.1742481469991617
111,150,800,0.21567882914270362,0.015848931924611127,1,0.31290966300002765
111,151,200,0.053919707285675904,0.01995262314968879,0,0.19395705899660243
111,152,400,0.10783941457135181,0.025118864315095794,0,0.29115103100048145
111,153,000,0,0.0630957344480193,1,0.27711387800081866
111,154,100,0.026959853642837952,0.03162277660168378,1,0.33418480300315423
111,155,800,0.21567882914270362,0.012589254117941666,0,0.338218719996803
111,156,000,0,0.050118723362727206,1,0.32349354300095
111,157,400_null,0.10783941457135181,0.031622776601683784,0,0.3288029569957871
111,158,200,0.053919707285675904,0.025118864315095794,1,0.28203004799433984
111,159,100,0.026959853642837952,0.025118864315095787,0,0.40978205599822104
111,160,200,0.053919707285675904,0.01995262314968879,1,0.3143942250026157
111,161,800,0.21567882914270362,0.015848931924611127,0,0.2667857870037551
111,162,400,0.10783941457135181,0.031622776601683784,0,0.2594957020046422
111,163,000,0,0.039810717055349706,1,0.3882796079997206
111,164,100,0.026959853642837952,0.03162277660168378,1,0.3165421529993182
111,165,200,0.053919707285675904,0.015848931924611127,0,0.33472380300372606
111,166,000,0,0.03162277660168378,1,0.33649175699974876
111,167,100,0.026959853642837952,0.025118864315095787,1,0.3193661900004372
111,168,800,0.21567882914270362,0.01995262314968879,0,0.39266371700068703
111,169,400,0.10783941457135181,0.03981071705534971,1,0.20188004099327372
111,170,800,0.21567882914270362,0.025118864315095794,1,0.13505504000204382
111,171,400,0.10783941457135181,0.031622776601683784,1,0.304104983995785
111,172,000_null,0,0.025118864315095787,0,0.38408385799993994
111,173,100,0.026959853642837952,0.019952623149688785,0,0.2455608420059434
111,174,200,0.053919707285675904,0.01995262314968879,1,0.32525355699908687
111,175,200,0.053919707285675904,0.015848931924611127,0,0.25358886799949687
111,176,000,0,0.025118864315095787,0,0.39771065799868666
111,177,100_null,0.026959853642837952,0.025118864315095787,0,0.2390977999966708
111,178,800_null,0.21567882914270362,0.01995262314968879,1,0.14315609500044957
111,179,400,0.10783941457135181,0.02511886431509579,1,0.25606520799919963
111,180,800,0.21567882914270362,0.01995262314968879,0,0.29823044600198045
111,181,000,0,0.03162277660168378,0,0.49217971000325633
111,182,400,0.10783941457135181,0.01995262314968879,1,0.36448566499893786
111,183,100,0.026959853642837952,0.025118864315095787,0,0.23795459200482583
111,184,200,0.053919707285675904,0.01995262314968879,0,0.3274465739959851
111,185,200_null,0.053919707285675904,0.025118864315095794,1,0.21925885300152004
111,186,000,0,0.039810717055349706,0,0.14033338900480885
111,187,100,0.026959853642837952,0.03162277660168378,1,0.19692743799532764
111,188,400,0.10783941457135181,0.015848931924611127,1,0.1945783789997222
111,189,800,0.21567882914270362,0.025118864315095794,0,0.2119617529970128
111,190,000,0,0.050118723362727206,0,0.30737460700038355
111,191,200_null,0.053919707285675904,0.025118864315095794,0,0.2760867760007386
111,192,400,0.10783941457135181,0.012589254117941666,1,0.15652434299408924
111,193,800_null,0.21567882914270362,0.031622776601683784,0,0.32567939900036436
111,194,100,0.026959853642837952,0.025118864315095787,0,0.47805017099744873
111,195,800,0.21567882914270362,0.031622776601683784,1,0.27995709300012095
111,196,100,0.026959853642837952,0.03162277660168378,1,0.22634171300160233
111,197,000,0,0.0630957344480193,1,0.19554617399990093
111,198,400,0.10783941457135181,0.009999999999999995,0,0.34441013600007864
111,199,200,0.053919707285675904,0.025118864315095794,1,0.3372494249997544
111,200,800_null,0.21567882914270362,0.02511886431509579,0,0.27980760100035695
111,201,100,0.026959853642837952,0.025118864315095787,0,0.36815097100043204
111,202,000,0,0.050118723362727206,1,0.27315281999472063
111,203,400,0.10783941457135181,0.012589254117941666,0,0.22992713400162756
111,204,200,0.053919707285675904,0.01995262314968879,1,0.2388725560012972
111,205,200,0.053919707285675904,0.015848931924611127,0,0.14344830800109776
111,206,800,0.21567882914270362,0.02511886431509579,1,0.22332577499764739
111,207,000,0,0.039810717055349706,0,0.2167821039984119
111,208,400,0.10783941457135181,0.015848931924611127,1,0.23290170300606405
111,209,100,0.026959853642837952,0.03162277660168378,0,0.18638312400435098
111,210,200,0.053919707285675904,0.01995262314968879,1,0.4273051630007103
111,211,100,0.026959853642837952,0.039810717055349706,1,0.3244821039988892
111,212,000,0,0.050118723362727206,1,0.4302026590012247
111,213,800,0.21567882914270362,0.01995262314968879,1,0.4203711709997151
111,214,400,0.10783941457135181,0.012589254117941666,1,0.22072279600251932
111,215,000_null,0,0.039810717055349706,0,0.5710321540027508
111,216,100,0.026959853642837952,0.03162277660168378,0,0.1793712310027331
111,217,800,0.21567882914270362,0.015848931924611127,1,0.12435720299981767
111,218,200,0.053919707285675904,0.015848931924611127,1,0.31446955999854254
111,219,400,0.10783941457135181,0.009999999999999995,0,0.178883197993855
111,220,000,0,0.039810717055349706,0,0.3321647580014542
111,221,200,0.053919707285675904,0.012589254117941666,1,0.3561303050009883
111,222,800,0.21567882914270362,0.012589254117941666,0,0.18794845200318377
111,223,400,0.10783941457135181,0.012589254117941666,1,0.11744870100665139
111,224,100,0.026959853642837952,0.039810717055349706,1,0.23764849200233584
111,225,100,0.026959853642837952,0.03162277660168378,1,0.2627666570042493
111,226,000,0,0.050118723362727206,1,0.2642984840058489
111,227,800,0.21567882914270362,0.015848931924611127,0,99
111,228,400,0.10783941457135181,0.009999999999999995,0,0.20037041299656266
111,229,200,0.053919707285675904,0.009999999999999995,0,0.39255556499847444
111,230,100,0.026959853642837952,0.025118864315095787,1,0.2655284459979157
111,231,800,0.21567882914270362,0.01995262314968879,0,0.14156743099738378
111,232,400,0.10783941457135181,0.012589254117941666,1,0.1667587839983753
111,233,200,0.053919707285675904,0.012589254117941666,0,0.34786822000023676
111,234,000_null,0,0.039810717055349706,0,0.21315992200106848
111,235,400,0.10783941457135181,0.009999999999999995,0,0.3332469089946244
111,236,200,0.053919707285675904,0.015848931924611127,1,0.4384891230001813
111,237,100,0.026959853642837952,0.019952623149688785,0,0.42222086199763
111,238,000_null,0,0.039810717055349706,0,0.43964088200300466
111,239,800_null,0.21567882914270362,0.025118864315095794,0,0.3679842519995873
111,240,100_null,0.026959853642837952,0.025118864315095787,0,0.5083388490020297
111,241,400,0.10783941457135181,0.012589254117941666,1,0.1705227550046402
111,242,200,0.053919707285675904,0.012589254117941666,1,0.41080841200164286
111,243,800,0.21567882914270362,0.025118864315095794,0,0.1878843969971058
111,244,000,0,0.039810717055349706,1,0.3249462909952854
111,245,400,0.10783941457135181,0.009999999999999995,0,0.18086761599988677
111,246,000,0,0.03162277660168378,1,0.34232096999767236
111,247,100,0.026959853642837952,0.025118864315095787,0,0.11855318200105103
111,248,200,0.053919707285675904,0.009999999999999995,1,0.159754211003019
111,249,800,0.21567882914270362,0.031622776601683784,1,0.3298457030032296
111,250,800,0.21567882914270362,0.02511886431509579,0,0.18690205899474677
111,251,400,0.10783941457135181,0.012589254117941666,0,0.3606299580060295
111,252,200,0.053919707285675904,0.00794328234724281,1,0.5383363159999135
111,253,000,0,0.025118864315095787,1,0.336498582000786
111,254,100,0.026959853642837952,0.03162277660168378,1,0.3202792599986424
111,255,200,0.053919707285675904,0.0063095734448019285,1,0.24089673299749848
111,256,800,0.21567882914270362,0.031622776601683784,0,0.1828496570014977
111,257,400_null,0.10783941457135181,0.015848931924611127,0,0.2237789810023969
111,258,000,0,0.019952623149688785,0,1.1772801039987826
111,259,100,0.026959853642837952,0.025118864315095787,0,0.6811943650027388
111,260,200,0.053919707285675904,0.005011872336272719,0,0.2573981930036098
111,261,000,0,0.025118864315095787,0,0.42688556199573213
111,262,100,0.026959853642837952,0.03162277660168378,0,0.1794484130005003
111,263,800,0.21567882914270362,0.03981071705534971,1,0.17997177499637473
111,264,400,0.10783941457135181,0.015848931924611127,1,0.12625371999456547
111,265,800,0.21567882914270362,0.031622776601683784,1,0.2468329659968731
111,266,100,0.026959853642837952,0.039810717055349706,1,0.31744075400638394
111,267,200,0.053919707285675904,0.0063095734448019285,1,0.2697132130051614
111,268,000,0,0.03162277660168378,0,0.2865866249994724
111,269,400,0.10783941457135181,0.012589254117941666,0,0.4756940070001292
111,270,200,0.053919707285675904,0.005011872336272719,1,0.30919216699840035
111,271,100,0.026959853642837952,0.03162277660168378,1,0.29083707399695413
111,272,800,0.21567882914270362,0.02511886431509579,1,0.44449832499958575
111,273,000,0,0.039810717055349706,1,0.3964337319994229
111,274,400,0.10783941457135181,0.015848931924611127,1,0.37344582800142234
111,275,000_null,0,0.03162277660168378,0,0.4220624180015875
111,276,200_null,0.053919707285675904,0.00398107170553497,0,0.5030577300058212
111,277,100,0.026959853642837952,0.025118864315095787,1,0.34297222600434907
111,278,800,0.21567882914270362,0.01995262314968879,0,0.19241845999931684
111,279,400,0.10783941457135181,0.012589254117941666,1,0.3939970869978424
111,280,100_null,0.026959853642837952,0.019952623149688785,0,0.6676840349973645
111,281,000,0,0.03162277660168378,0,0.3286835920007434
111,282,800,0.21567882914270362,0.025118864315095794,0,0.04188399600388948
111,283,200,0.053919707285675904,0.00398107170553497,1,0.1700662189978175
111,284,400,0.10783941457135181,0.009999999999999995,0,99
111,285,200,0.053919707285675904,0.0031622776601683772,1,0.27261328999884427
111,286,800,0.21567882914270362,0.031622776601683784,1,0.16651938099676045
111,287,400,0.10783941457135181,0.012589254117941666,1,0.2317948880008771
111,288,100,0.026959853642837952,0.019952623149688785,0,0.3031154619966401
111,289,000,0,0.039810717055349706,0,0.29477815499558346
111,290,800,0.21567882914270362,0.02511886431509579,1,0.1760989949980285
111,291,200_null,0.053919707285675904,0.002511886431509578,0,0.21617862800485454
111,292,000,0,0.050118723362727206,1,0.25953776400274364
111,293,100,0.026959853642837952,0.025118864315095787,0,0.3329238910009735
111,294,400_null,0.10783941457135181,0.009999999999999995,1,0.2930043209998985
111,295,200,0.053919707285675904,0.002511886431509578,1,0.28608826999698067
111,296,100,0.026959853642837952,0.03162277660168378,0,0.23634917000163114
111,297,000,0,0.039810717055349706,1,0.19601366500137374
111,298,800,0.21567882914270362,0.01995262314968879,0,0.3178053599986015
111,299,400,0.10783941457135181,0.009999999999999995,1,0.24398093699710444
111,300,100_null,0.026959853642837952,0.039810717055349706,0,0.27595512900006725
111,301,000_null,0,0.03162277660168378,0,99
111,302,800,0.21567882914270362,0.025118864315095794,0,99
111,303,200,0.053919707285675904,0.001995262314968878,1,0.22633177900570445
111,304,400,0.10783941457135181,0.00794328234724281,0,0.32327784199878806
111,305,200,0.053919707285675904,0.0015848931924611121,0,0.28358773099898826
111,306,800,0.21567882914270362,0.031622776601683784,0,0.19852450899634277
111,307,400,0.10783941457135181,0.009999999999999995,0,0.36693250499956775
111,308,000,0,0.03162277660168378,1,0.3518529499997385
111,309,100,0.026959853642837952,0.039810717055349706,1,0.2896855240032892
111,310,800_null,0.21567882914270362,0.03981071705534971,0,0.32208377099595964
111,311,400,0.10783941457135181,0.012589254117941666,0,0.34339980000368087
111,312,100,0.026959853642837952,0.03162277660168378,1,0.33709040800022194
111,313,000,0,0.025118864315095787,1,0.5443128049955703
111,314,200,0.053919707285675904,0.001995262314968878,1,0.36689772599493153
111,315,100,0.026959853642837952,0.025118864315095787,0,0.19923544400080573
111,316,800,0.21567882914270362,0.03981071705534971,1,0.2162943439980154
111,317,200,0.053919707285675904,0.0015848931924611121,0,0.4232939300054568
111,318,400,0.10783941457135181,0.015848931924611127,1,0.1912628779973602
111,319,000,0,0.019952623149688785,0,0.13692753400391666
111,320,000,0,0.025118864315095787,1,0.5531514230024186
111,321,100,0.026959853642837952,0.03162277660168378,1,0.23386030999972718
111,322,400,0.10783941457135181,0.012589254117941666,0,0.2833626749998075
111,323,200,0.053919707285675904,0.001995262314968878,0,0.16693254499841714
111,324,800,0.21567882914270362,0.031622776601683784,0,0.3087023090047296
111,325,200_null,0.053919707285675904,0.002511886431509578,1,0.42272500700346427
111,326,000,0,0.019952623149688785,1,0.6869207709969487
111,327,800,0.21567882914270362,0.03981071705534971,1,0.2929050609964179
111,328,400,0.10783941457135181,0.015848931924611127,0,0.5573757979946095
111,329,100,0.026959853642837952,0.025118864315095787,1,0.3554857620038092
111,330,100,0.026959853642837952,0.019952623149688785,0,0.39540025099995546
111,331,000_null,0,0.015848931924611124,0,0.24450018700008513
111,332,200,0.053919707285675904,0.002511886431509578,0,0.676127622005879
111,333,400,0.10783941457135181,0.01995262314968879,0,0.620965560003242
111,334,800,0.21567882914270362,0.031622776601683784,1,0.5892812999954913
111,335,800,0.21567882914270362,0.02511886431509579,1,0.6066190519995871
111,336,400,0.10783941457135181,0.025118864315095794,1,0.34268668099684874
111,337,200,0.053919707285675904,0.0031622776601683772,1,0.3607818789969315
111,338,100,0.026959853642837952,0.025118864315095787,0,0.44276890099718
111,339,000,0,0.015848931924611124,0,0.3531748140012496
111,340,200,0.053919707285675904,0.002511886431509578,1,0.3081753860024037
111,341,400,0.10783941457135181,0.01995262314968879,0,0.5896432179943076
111,342,000,0,0.019952623149688785,0,0.3137963410044904
111,343,800,0.21567882914270362,0.01995262314968879,0,0.29068579399609007
111,344,100,0.026959853642837952,0.03162277660168378,0,0.3207537240014062
111,345,000,0,0.025118864315095787,1,0.32794154599832837
111,346,100,0.026959853642837952,0.039810717055349706,0,0.5928556279977784
111,347,400,0.10783941457135181,0.025118864315095794,0,0.40023721800389467
111,348,800,0.21567882914270362,0.025118864315095794,1,0.20968287899449933
111,349,200,0.053919707285675904,0.001995262314968878,0,0.5134579520017724
111,350,100,0.026959853642837952,0.050118723362727206,1,0.3067739079997409
111,351,000,0,0.019952623149688785,0,0.6119413150008768
111,352,200,0.053919707285675904,0.002511886431509578,1,0.34208535999641754
111,353,800,0.21567882914270362,0.01995262314968879,1,0.30236110200348776
111,354,400_null,0.10783941457135181,0.031622776601683784,0,0.3336602130002575
111,355,100,0.026959853642837952,0.039810717055349706,1,0.3207971570009249
111,356,400_null,0.10783941457135181,0.031622776601683784,0,0.23291545499523636
111,357,800,0.21567882914270362,0.015848931924611127,1,0.19079339800373418
111,358,000_null,0,0.025118864315095787,0,0.19091894900338957
111,359,200,0.053919707285675904,0.001995262314968878,0,0.439049698994495
111,360,400,0.10783941457135181,0.031622776601683784,0,0.4174547309958143
111,361,200_null,0.053919707285675904,0.002511886431509578,0,0.31516538400319405
111,362,000,0,0.025118864315095787,0,0.5974833600048441
111,363,100,0.026959853642837952,0.03162277660168378,1,0.7387198880023789
111,364,800,0.21567882914270362,0.012589254117941666,0,0.4041069310042076
111,365,400,0.10783941457135181,0.03981071705534971,1,0.3853457610020996
111,366,800,0.21567882914270362,0.015848931924611127,0,0.45037480300379684
111,367,200,0.053919707285675904,0.002511886431509578,0,0.5704375040004379
111,368,100,0.026959853642837952,0.025118864315095787,1,0.4008160740049789
111,369,000,0,0.03162277660168378,0,0.42486316400027135
111,370,200,0.053919707285675904,0.0031622776601683772,1,0.5448024700017413
111,371,800,0.21567882914270362,0.01995262314968879,0,0.6498516220017336
111,372,000,0,0.039810717055349706,1,0.4744931489985902
111,373,100,0.026959853642837952,0.019952623149688785,0,0.267281638996792
111,374,400,0.10783941457135181,0.031622776601683784,1,0.3237852140009636
111,375,800,0.21567882914270362,0.025118864315095794,0,0.32549605399981374
111,376,000,0,0.03162277660168378,1,0.5197020050036372
111,377,400,0.10783941457135181,0.02511886431509579,0,0.44113538000237895
111,378,100,0.026959853642837952,0.025118864315095787,0,0.3511893339964445
111,379,200,0.053919707285675904,0.002511886431509578,1,0.5595917760001612
111,380,800,0.21567882914270362,0.031622776601683784,0,0.42938852200313704
111,381,000,0,0.025118864315095787,0,0.558659087997512
111,382,100,0.026959853642837952,0.03162277660168378,1,0.38272898200375494
111,383,200,0.053919707285675904,0.001995262314968878,0,0.4128946049968363
111,384,400,0.10783941457135181,0.031622776601683784,0,0.43725664199882885
111,385,000,0,0.03162277660168378,1,0.510518991999561
111,386,400,0.10783941457135181,0.03981071705534971,0,0.270484527994995
111,387,800,0.21567882914270362,0.03981071705534971,1,0.5118038869986776
111,388,100,0.026959853642837952,0.025118864315095787,0,0.6557772590022068
111,389,200,0.053919707285675904,0.002511886431509578,0,0.5287948420009343
111,390,000,0,0.025118864315095787,0,0.46637130199815147
111,391,800,0.21567882914270362,0.031622776601683784,0,0.5712078149954323
111,392,400,0.10783941457135181,0.05011872336272721,1,0.5644110550056212
111,393,100,0.026959853642837952,0.03162277660168378,1,0.5224212430039188
111,394,200_null,0.053919707285675904,0.0031622776601683772,0,0.4427005290053785
111,395,100,0.026959853642837952,0.025118864315095787,0,0.6325836690011784
111,396,800_null,0.21567882914270362,0.03981071705534971,0,0.5701557459979085
111,397,000,0,0.03162277660168378,1,0.32214757200563326
111,398,400,0.10783941457135181,0.03981071705534971,1,0.31226002000039443
111,399,200,0.053919707285675904,0.0031622776601683772,0,0.3844408829972963
111,400,800,0.21567882914270362,0.03981071705534971,1,0.2976001110000652
111,401,200,0.053919707285675904,0.00398107170553497,0,0.3780120439987513
111,402,000,0,0.025118864315095787,0,0.32333394500165014
111,403,400,0.10783941457135181,0.031622776601683784,1,0.3780030670022825
111,404,100,0.026959853642837952,0.03162277660168378,0,0.2993598109969753
111,405,800,0.21567882914270362,0.031622776601683784,1,0.28367327399610076
111,406,000_null,0,0.03162277660168378,0,0.27732753299642354
111,407,100_null,0.026959853642837952,0.039810717055349706,0,0.28733088199805934
111,408,400,0.10783941457135181,0.02511886431509579,0,0.40499668000120437
111,409,200,0.053919707285675904,0.00501187233627272,1,0.24501598099595867
111,410,800,0.21567882914270362,0.02511886431509579,1,0.4622490449983161
111,411,400,0.10783941457135181,0.031622776601683784,1,0.3080434659932507
111,412,200,0.053919707285675904,0.00398107170553497,0,0.5649751699966146
111,413,100,0.026959853642837952,0.039810717055349706,0,0.3945868899972993
111,414,000,0,0.03162277660168378,0,0.3788211809951463
111,415,100,0.026959853642837952,0.050118723362727206,1,0.5641129139985424
111,416,200,0.053919707285675904,0.00501187233627272,0,0.46038225500524277
111,417,400,0.10783941457135181,0.02511886431509579,1,0.4531355600047391
111,418,000,0,0.039810717055349706,1,0.3895872240027529
111,419,800,0.21567882914270362,0.01995262314968879,0,0.32705027100018924
111,420,200,0.053919707285675904,0.006309573444801929,0,0.44682076599565335
111,421,000,0,0.03162277660168378,1,0.6085803770038183
111,422,400,0.10783941457135181,0.01995262314968879,0,0.4188714629999595
111,423,800,0.21567882914270362,0.025118864315095794,0,0.34450804500374943
111,424,100,0.026959853642837952,0.039810717055349706,1,0.38559274499857565
111,425,400,0.10783941457135181,0.025118864315095794,0,0.35348667899961583
111,426,000,0,0.025118864315095787,1,0.43214168999838876
111,427,800,0.21567882914270362,0.031622776601683784,0,0.28776063099940075
111,428,200,0.053919707285675904,0.007943282347242812,0,0.358410090993857
111,429,100,0.026959853642837952,0.03162277660168378,1,0.3272009810025338
111,430,800,0.21567882914270362,0.03981071705534971,0,0.31168727099429816
111,431,200,0.053919707285675904,0.009999999999999997,1,0.40852758200344397
111,432,400,0.10783941457135181,0.031622776601683784,1,0.4088717960039503
111,433,000,0,0.019952623149688785,0,0.20984367100027157
111,434,100,0.026959853642837952,0.025118864315095787,0,0.22635639600048307
111,435,800,0.21567882914270362,0.05011872336272721,1,0.3317088949988829
111,436,100,0.026959853642837952,0.03162277660168378,1,0.5727139240043471
111,437,000,0,0.025118864315095787,0,0.27024755899765296
111,438,200,0.053919707285675904,0.007943282347242812,1,0.4236797720004688
111,439,400,0.10783941457135181,0.02511886431509579,0,0.3329509120012517
111,440,400,0.10783941457135181,0.031622776601683784,1,0.46115725499839755
111,441,100,0.026959853642837952,0.025118864315095787,0,0.4993753490052768
111,442,200,0.053919707285675904,0.006309573444801929,0,0.708219187996292
111,443,000,0,0.03162277660168378,0,0.5386604219966102
111,444,800,0.21567882914270362,0.03981071705534971,1,0.41878629800339695
111,445,200,0.053919707285675904,0.007943282347242812,0,0.4039443410001695
111,446,800,0.21567882914270362,0.031622776601683784,0,0.5330879039975116
111,447,400,0.10783941457135181,0.02511886431509579,0,0.4451499060014612
111,448,100_null,0.026959853642837952,0.03162277660168378,0,0.5825953659950756
111,449,000,0,0.039810717055349706,1,0.45474166499479907
111,450,200_null,0.053919707285675904,0.009999999999999997,0,0.6237930189963663
111,451,400,0.10783941457135181,0.031622776601683784,1,0.5448614529959741
111,452,000,0,0.03162277660168378,1,0.7230256210023072
111,453,100,0.026959853642837952,0.03162277660168378,0,0.7562754659957136
111,454,800,0.21567882914270362,0.03981071705534971,1,0.3381634990000748
111,455,000,0,0.025118864315095787,0,0.1944044610063429
111,456,400_null,0.10783941457135181,0.02511886431509579,1,0.16886326699750498
111,457,800,0.21567882914270362,0.031622776601683784,0,0.3140850400013733
111,458,200,0.053919707285675904,0.009999999999999997,0,0.2661006920025102
111,459,100,0.026959853642837952,0.039810717055349706,1,0.46422272700147005
111,460,400,0.10783941457135181,0.02511886431509579,1,0.2966311290001613
111,461,200,0.053919707285675904,0.012589254117941668,0,0.5614767929946538
111,462,100,0.026959853642837952,0.03162277660168378,0,0.7457834260058007
111,463,800,0.21567882914270362,0.03981071705534971,1,0.3065578270034166
111,464,000,0,0.03162277660168378,0,0.3229473309984314
111,465,000,0,0.039810717055349706,1,0.3421387530033826
111,466,800,0.21567882914270362,0.031622776601683784,0,0.34256750500208
111,467,100,0.026959853642837952,0.039810717055349706,1,0.3121428829981596
111,468,200_null,0.053919707285675904,0.01584893192461113,0,0.29727308099973015
111,469,400_null,0.10783941457135181,0.01995262314968879,0,0.12703053600125713
111,470,000,0,0.03162277660168378,0,0.4306231629961985
111,471,400,0.10783941457135181,0.01995262314968879,1,0.26100000600126805
111,472,200,0.053919707285675904,0.01584893192461113,0,0.37357470900315093
111,473,800,0.21567882914270362,0.03981071705534971,1,0.39051120299700415
111,474,100,0.026959853642837952,0.03162277660168378,0,0.5337696009955835
111,475,400,0.10783941457135181,0.015848931924611127,1,0.2615252169998712
111,476,800,0.21567882914270362,0.031622776601683784,0,0.2869381019991124
111,477,100,0.026959853642837952,0.039810717055349706,0,0.4630523460000404
111,478,200,0.053919707285675904,0.019952623149688792,1,0.4961574569970253
111,479,000,0,0.039810717055349706,1,0.3955057200000738
111,480,800,0.21567882914270362,0.03981071705534971,1,0.5459146380017046
111,481,000,0,0.03162277660168378,0,0.20162623199576046
111,482,100,0.026959853642837952,0.050118723362727206,0,0.10714309899776708
111,483,400,0.10783941457135181,0.012589254117941666,1,0.22701276800216874
111,484,200,0.053919707285675904,0.01584893192461113,1,0.340419464999286
111,485,200,0.053919707285675904,0.012589254117941668,0,0.4925913980041514
111,486,800,0.21567882914270362,0.031622776601683784,1,0.37384781100263353
111,487,100,0.026959853642837952,0.0630957344480193,1,0.3190555770052015
111,488,400,0.10783941457135181,0.009999999999999995,0,0.256435663002776
111,489,000,0,0.039810717055349706,1,0.242817168997135
111,490,800,0.21567882914270362,0.02511886431509579,0,0.29614184299862245
111,491,400_null,0.10783941457135181,0.012589254117941666,0,0.1767291399955866
111,492,000,0,0.03162277660168378,0,0.4147339049959555
111,493,100_null,0.026959853642837952,0.050118723362727206,1,0.23208276699733688
111,494,200,0.053919707285675904,0.01584893192461113,0,0.3759606379971956
111,495,400,0.10783941457135181,0.012589254117941666,1,0.22227600399492076
111,496,200,0.053919707285675904,0.019952623149688792,0,0.27835086500272155
111,497,100,0.026959853642837952,0.050118723362727206,1,0.23117522300162818
111,498,000,0,0.039810717055349706,0,0.21541845399769954
111,499,800,0.21567882914270362,0.031622776601683784,1,0.2168445019997307
111,500,200,0.053919707285675904,0.025118864315095798,0,0.1689129829974263
111,501,000,0,0.050118723362727206,1,0.2981730579995201
111,502,100,0.026959853642837952,0.039810717055349706,0,0.2592876039998373
111,503,400,0.10783941457135181,0.009999999999999995,1,0.2613691430015024
111,504,800,0.21567882914270362,0.02511886431509579,0,0.28634482299821684
111,505,000,0,0.039810717055349706,0,0.30885141999897314
111,506,200,0.053919707285675904,0.03162277660168379,1,0.20581485600268934
111,507,100,0.026959853642837952,0.050118723362727206,1,0.2909032660027151
111,508,400,0.10783941457135181,0.00794328234724281,0,0.3002034579985775
111,509,800,0.21567882914270362,0.031622776601683784,1,0.21241624300455442
111,510,400,0.10783941457135181,0.009999999999999995,0,0.1543078980030259
111,511,800,0.21567882914270362,0.02511886431509579,0,0.17167934800090734
111,512,100,0.026959853642837952,0.039810717055349706,1,0.13161700499767903
111,513,200,0.053919707285675904,0.025118864315095798,0,0.24523710200446658
111,514,000,0,0.050118723362727206,1,0.27723430300102336
111,515,400,0.10783941457135181,0.012589254117941666,0,0.23856573500233935
111,516,200,0.053919707285675904,0.03162277660168379,1,0.21434520700131543
111,517,800,0.21567882914270362,0.031622776601683784,1,0.3418894400019781
111,518,000,0,0.039810717055349706,0,0.18270760100131156
111,519,100,0.026959853642837952,0.03162277660168378,1,0.14467346599849407
111,520,200_null,0.053919707285675904,0.025118864315095798,0,0.3024538250028854
111,521,400_null,0.10783941457135181,0.015848931924611127,1,0.17545502400025725
111,522,800,0.21567882914270362,0.02511886431509579,0,0.19944125700567383
111,523,100,0.026959853642837952,0.025118864315095787,0,0.10944354499952169
111,524,000_null,0,0.050118723362727206,0,0.3508590780038503
111,525,100,0.026959853642837952,0.03162277660168378,0,0.2287065860000439
111,526,200,0.053919707285675904,0.025118864315095798,0,0.3008843549978337
111,527,400,0.10783941457135181,0.015848931924611127,0,0.23021698000229662
111,528,800,0.21567882914270362,0.031622776601683784,0,0.2786355360003654
111,529,000,0,0.050118723362727206,1,0.15961571299703792
111,530,000,0,0.039810717055349706,0,0.17562092500156723
111,531,100,0.026959853642837952,0.039810717055349706,1,0.1530270820003352
111,532,800,0.21567882914270362,0.03981071705534971,1,0.11328213100205176
111,533,400,0.10783941457135181,0.01995262314968879,0,0.05908135200297693
111,534,200,0.053919707285675904,0.03162277660168379,1,0.12308224000298651
111,535,400,0.10783941457135181,0.025118864315095794,0,0.11375041900464566
111,536,000_null,0,0.050118723362727206,1,0.21086851799918804
111,537,200,0.053919707285675904,0.025118864315095798,0,0.1789266849955311
111,538,100,0.026959853642837952,0.03162277660168378,1,0.2328011260033236
111,539,800,0.21567882914270362,0.031622776601683784,0,0.16898356699675787
111,540,000,0,0.050118723362727206,1,0.264353951002704
111,541,800,0.21567882914270362,0.03981071705534971,1,0.33624371800397057
111,542,100,0.026959853642837952,0.025118864315095787,0,0.16985669700079598
111,543,400,0.10783941457135181,0.031622776601683784,1,0.18591274299978977
111,544,200,0.053919707285675904,0.03162277660168379,0,0.15493678799975896
111,545,100,0.026959853642837952,0.03162277660168378,1,0.23487891900003888
111,546,800,0.21567882914270362,0.031622776601683784,1,0.42823995100479806
111,547,400,0.10783941457135181,0.02511886431509579,1,0.388675943002454
111,548,200,0.053919707285675904,0.03981071705534973,1,0.2541753810000955
111,549,000,0,0.039810717055349706,1,0.28674238699750276
111,550,800,0.21567882914270362,0.02511886431509579,0,0.3325755499972729
111,551,000,0,0.03162277660168378,0,0.27696348699828377
111,552,400_null,0.10783941457135181,0.01995262314968879,1,0.21444430800329428
111,553,200,0.053919707285675904,0.03162277660168379,0,0.16437422900344245
111,554,100,0.026959853642837952,0.025118864315095787,0,0.1564048520012875
111,555,800,0.21567882914270362,0.031622776601683784,0,0.07498576900252374
111,556,200,0.053919707285675904,0.03981071705534973,0,0.13989609099371592
111,557,100,0.026959853642837952,0.03162277660168378,1,0.2608386900028563
111,558,400,0.10783941457135181,0.01995262314968879,0,0.3572077270000591
111,559,000,0,0.039810717055349706,1,0.302538085001288
111,560,400,0.10783941457135181,0.025118864315095794,1,0.2944727200010675
111,561,800,0.21567882914270362,0.03981071705534971,1,0.3276489209965803
111,562,000,0,0.03162277660168378,1,0.24903976599307498
111,563,100,0.026959853642837952,0.025118864315095787,0,0.22494272800395265
111,564,200,0.053919707285675904,0.050118723362727234,1,0.16356262000044808
111,565,000,0,0.025118864315095787,1,0.21356675300194183
111,566,800,0.21567882914270362,0.031622776601683784,1,0.24257629200292286
111,567,400,0.10783941457135181,0.01995262314968879,0,0.43586696699640015
111,568,200,0.053919707285675904,0.03981071705534973,1,0.2645640189948608
111,569,100,0.026959853642837952,0.03162277660168378,0,0.2100379539988353
111,570,100,0.026959853642837952,0.039810717055349706,1,0.1942712689997279
111,571,200,0.053919707285675904,0.03162277660168379,0,0.22547334500268335
111,572,400,0.10783941457135181,0.025118864315095794,1,0.1625582039996516
111,573,800_null,0.21567882914270362,0.02511886431509579,1,0.17032516800099984
111,574,000_null,0,0.019952623149688785,0,0.2819655050043366
111,575,200,0.053919707285675904,0.03981071705534973,0,0.042884223999863025
111,576,400,0.10783941457135181,0.01995262314968879,1,0.07612270100071328
111,577,100,0.026959853642837952,0.03162277660168378,1,0.25306430400087265
111,578,800,0.21567882914270362,0.02511886431509579,0,0.3994866149951122
111,579,000,0,0.019952623149688785,1,0.34481073200004175
111,580,000,0,0.015848931924611124,0,0.21872562800126616
111,581,200,0.053919707285675904,0.050118723362727234,1,0.2639026780016138
111,582,100,0.026959853642837952,0.025118864315095787,0,0.23986098099703668
111,583,400,0.10783941457135181,0.015848931924611127,1,0.1662211209986708
111,584,800,0.21567882914270362,0.031622776601683784,1,0.13440923699818086
111,585,000,0,0.019952623149688785,0,0.279124722997949
111,586,100,0.026959853642837952,0.03162277660168378,1,0.19068471300124656
111,587,400,0.10783941457135181,0.012589254117941666,0,0.31093510900245747
111,588,200,0.053919707285675904,0.03981071705534973,1,0.17572338600439252
111,589,800,0.21567882914270362,0.02511886431509579,0,0.2412359860027209
111,590,100,0.026959853642837952,0.025118864315095787,0,0.2492095590059762
111,591,800,0.21567882914270362,0.031622776601683784,1,0.2184008870026446
111,592,200_null,0.053919707285675904,0.03162277660168379,1,0.3656597340013832
111,593,000,0,0.025118864315095787,0,0.15584433500043815
111,594,400,0.10783941457135181,0.015848931924611127,0,0.1429253480018815
111,595,400,0.10783941457135181,0.01995262314968879,1,0.1923718039979576
111,596,800,0.21567882914270362,0.02511886431509579,0,0.15607552300207317
111,597,100,0.026959853642837952,0.03162277660168378,1,0.2775984139952925
111,598,200,0.053919707285675904,0.03162277660168379,1,0.6189967780010193
111,599,000,0,0.03162277660168378,0,0.23586500599776627
111,600,200,0.053919707285675904,0.025118864315095798,0,0.5780636000054074
111,601,800,0.21567882914270362,0.031622776601683784,1,0.2134439299989026
111,602,100,0.026959853642837952,0.025118864315095787,0,0.39752645199769177
111,603,000,0,0.039810717055349706,1,0.43856262400367996
111,604,400,0.10783941457135181,0.015848931924611127,0,0.34678915300173685
111,605,100,0.026959853642837952,0.03162277660168378,0,0.307714347000001
111,606,800_null,0.21567882914270362,0.02511886431509579,0,0.16514574299799278
111,607,000,0,0.03162277660168378,1,0.19405489200289594
111,608,200,0.053919707285675904,0.03162277660168379,0,0.09874459500133526
111,609,400_null,0.10783941457135181,0.01995262314968879,0,0.22633986199798528
111,610,800,0.21567882914270362,0.02511886431509579,0,0.24343998500262387
111,611,000,0,0.025118864315095787,0,0.17969740599801298
111,612,100,0.026959853642837952,0.039810717055349706,1,0.3331302880033036
111,613,400,0.10783941457135181,0.01995262314968879,0,0.3809022220011684
111,614,200,0.053919707285675904,0.03981071705534973,1,0.4161522070062347
111,615,000,0,0.03162277660168378,1,0.313440244004596
111,616,400,0.10783941457135181,0.025118864315095794,0,0.17087790700315963
111,617,800,0.21567882914270362,0.031622776601683784,1,0.24066336500254693
111,618,200,0.053919707285675904,0.03162277660168379,0,0.18810712700360455
111,619,100,0.026959853642837952,0.03162277660168378,1,0.29597022700181697
111,620,400,0.10783941457135181,0.031622776601683784,1,0.29735574700316647
111,621,200,0.053919707285675904,0.03981071705534973,1,0.2971571079979185
111,622,000,0,0.025118864315095787,0,0.35161610299837776
111,623,800,0.21567882914270362,0.02511886431509579,1,0.22458366199862212
111,624,100,0.026959853642837952,0.025118864315095787,0,0.32758539600035874
111,625,800,0.21567882914270362,0.01995262314968879,1,0.20106556300015654
111,626,100,0.026959853642837952,0.03162277660168378,0,0.35312796600192087
111,627,000,0,0.03162277660168378,1,0.3702109560035751
111,628,200,0.053919707285675904,0.03162277660168379,1,0.33851993000280345
111,629,400,0.10783941457135181,0.02511886431509579,0,0.11632881600235123
111,630,200,0.053919707285675904,0.025118864315095798,1,0.430026904999977
111,631,000_null,0,0.025118864315095787,0,0.2480097730003763
111,632,800,0.21567882914270362,0.015848931924611127,0,0.6041234360018279
111,633,100,0.026959853642837952,0.039810717055349706,1,0.39744852500007255
111,634,400,0.10783941457135181,0.031622776601683784,1,0.23434029599593487
111,635,000,0,0.025118864315095787,0,0.44345087699912256
111,636,200,0.053919707285675904,0.019952623149688792,1,0.38771100099984324
111,637,100_null,0.026959853642837952,0.03162277660168378,1,0.705756878000102
111,638,800,0.21567882914270362,0.01995262314968879,0,0.2343663089995971
111,639,400,0.10783941457135181,0.02511886431509579,0,0.139106376998825
111,640,000,0,0.03162277660168378,0,0.3314629650049028
111,641,200,0.053919707285675904,0.01584893192461113,0,0.14855730500130448
111,642,400_null,0.10783941457135181,0.031622776601683784,0,0.18074536899803206
111,643,800,0.21567882914270362,0.025118864315095794,0,0.30183119000139413
111,644,100,0.026959853642837952,0.03162277660168378,1,0.45407098699797643
111,645,100,0.026959853642837952,0.025118864315095787,0,0.3844667550001759
111,646,800,0.21567882914270362,0.031622776601683784,1,0.20187811499636155
111,647,200,0.053919707285675904,0.019952623149688792,0,0.20757407900237013
111,648,400,0.10783941457135181,0.031622776601683784,1,0.34389813400048297
111,649,000,0,0.039810717055349706,0,0.23298699800216127
111,650,000,0,0.050118723362727206,0,0.2630335039939382
111,651,200,0.053919707285675904,0.025118864315095798,1,0.22290380900085438
111,652,100,0.026959853642837952,0.03162277660168378,0,0.29333018099714536
111,653,800,0.21567882914270362,0.02511886431509579,0,0.4371150110018789
111,654,400,0.10783941457135181,0.02511886431509579,0,0.27858650100097293
111,655,800,0.21567882914270362,0.031622776601683784,1,0.28662847799569136
111,656,200,0.053919707285675904,0.019952623149688792,0,0.22289632700267248
111,657,000_null,0,0.0630957344480193,0,0.16798718299833126
111,658,400,0.10783941457135181,0.031622776601683784,0,0.18426229699980468
111,659,100,0.026959853642837952,0.039810717055349706,1,0.20936342799541308
111,660,000,0,0.0630957344480193,1,0.2757418429973768
111,661,400,0.10783941457135181,0.03981071705534971,1,0.2290090690003126
111,662,200,0.053919707285675904,0.025118864315095798,1,0.21845305600436404
111,663,800,0.21567882914270362,0.02511886431509579,0,0.14788699899509083
111,664,100,0.026959853642837952,0.03162277660168378,1,0.15569621099712094
111,665,100,0.026959853642837952,0.025118864315095787,0,0.2504812109982595
111,666,800,0.21567882914270362,0.031622776601683784,1,0.09847488900413737
111,667,000,0,0.050118723362727206,1,0.28864754299866036
111,668,200,0.053919707285675904,0.019952623149688792,0,0.2738634550041752
111,669,400,0.10783941457135181,0.031622776601683784,1,0.1219736519997241
111,670,000,0,0.039810717055349706,0,0.32195529700402403
111,671,100,0.026959853642837952,0.03162277660168378,1,0.2429131899989443
111,672,800,0.21567882914270362,0.02511886431509579,1,0.21196788100496633
111,673,200,0.053919707285675904,0.025118864315095798,1,0.1887434249947546
111,674,400,0.10783941457135181,0.02511886431509579,0,0.14198728399787797
111,675,200,0.053919707285675904,0.019952623149688792,1,0.19807718900119653
111,676,800,0.21567882914270362,0.01995262314968879,0,0.1756939990009414
111,677,000,0,0.050118723362727206,0,0.1849989149995963
111,678,100,0.026959853642837952,0.025118864315095787,0,0.3751628559984965
111,679,400,0.10783941457135181,0.031622776601683784,1,0.36023923799803015
111,680,200,0.053919707285675904,0.01584893192461113,0,0.2136478789980174
111,681,800,0.21567882914270362,0.025118864315095794,0,0.19906472099683015
111,682,400,0.10783941457135181,0.02511886431509579,1,0.19704954899498262
111,683,000,0,0.0630957344480193,1,0.405002710998815
111,684,100,0.026959853642837952,0.03162277660168378,0,0.3814678089984227
111,685,800,0.21567882914270362,0.031622776601683784,0,0.2545150560035836
111,686,000,0,0.050118723362727206,0,0.24773075399571098
111,687,200,0.053919707285675904,0.019952623149688792,1,0.18357006599399028
111,688,100,0.026959853642837952,0.039810717055349706,1,0.23292461099481443
111,689,400,0.10783941457135181,0.01995262314968879,1,0.14512458199897083
111,690,800,0.21567882914270362,0.03981071705534971,0,99
111,691,000,0,0.0630957344480193,1,0.035534199996618554
111,692,200,0.053919707285675904,0.01584893192461113,1,0.23611822399834637
111,693,400_null,0.10783941457135181,0.015848931924611127,0,0.09012482200341765
111,694,100,0.026959853642837952,0.03162277660168378,0,0.09860011999990093
111,695,800,0.21567882914270362,0.05011872336272721,1,0.09680678199947579
111,696,200,0.053919707285675904,0.012589254117941668,0,0.32941156499873614
111,697,100,0.026959853642837952,0.039810717055349706,1,0.24266234999959124
111,698,000,0,0.050118723362727206,0,0.17656447099579964
111,699,400,0.10783941457135181,0.015848931924611127,1,0.27381393399991794
111,700,000,0,0.0630957344480193,1,0.19373507799900835
111,701,100_null,0.026959853642837952,0.03162277660168378,0,0.30633867400320014
111,702,200,0.053919707285675904,0.01584893192461113,1,0.21879863100184593
111,703,800,0.21567882914270362,0.03981071705534971,0,0.09215882100397721
111,704,400,0.10783941457135181,0.012589254117941666,0,0.2523377939942293
111,705,400,0.10783941457135181,0.015848931924611127,1,0.19042613900091965
111,706,200,0.053919707285675904,0.012589254117941668,0,0.37639418100297917
111,707,000,0,0.050118723362727206,1,0.3691058879994671
111,708,100,0.026959853642837952,0.03162277660168378,0,0.19886769200093113
111,709,800,0.21567882914270362,0.05011872336272721,1,0.21529813600500347
111,710,000_null,0,0.039810717055349706,0,0.14890445100172656
111,711,200,0.053919707285675904,0.01584893192461113,1,0.2626395639963448
111,712,400,0.10783941457135181,0.012589254117941666,0,0.03073836499970639
111,713,800_null,0.21567882914270362,0.03981071705534971,1,0.13322849899850553
111,714,100,0.026959853642837952,0.039810717055349706,1,0.2938631449942477
111,715,400,0.10783941457135181,0.015848931924611127,0,0.23774159899767255
111,716,200_null,0.053919707285675904,0.012589254117941668,0,0.2872414689991274
111,717,800,0.21567882914270362,0.03981071705534971,1,0.24753224500454962
111,718,100,0.026959853642837952,0.03162277660168378,0,0.0971202139990055
111,719,000,0,0.039810717055349706,1,0.2738446989969816
111,720,000,0,0.03162277660168378,0,99
111,721,100,0.026959853642837952,0.039810717055349706,0,1.011325815001328
111,722,200_null,0.053919707285675904,0.012589254117941668,0,0.7886287479996099
111,723,400,0.10783941457135181,0.01995262314968879,0,0.2846194099984132
111,724,800,0.21567882914270362,0.031622776601683784,0,0.27681559800112154
111,725,000,0,0.039810717055349706,1,0.3420647509992705
111,726,200,0.053919707285675904,0.012589254117941668,0,0.3268431070027873
111,727,800,0.21567882914270362,0.03981071705534971,0,0.1935106560049462
111,728,400,0.10783941457135181,0.025118864315095794,0,0.19260571299673757
111,729,100,0.026959853642837952,0.050118723362727206,1,0.23364479999872856
111,730,100_null,0.026959853642837952,0.039810717055349706,0,0.3078414010014967
111,731,400_null,0.10783941457135181,0.031622776601683784,1,0.20051502099522622
111,732,800,0.21567882914270362,0.05011872336272721,1,0.29687391799961915
111,733,200,0.053919707285675904,0.01584893192461113,0,0.25799985000048764
111,734,000,0,0.03162277660168378,1,0.23933454899815843
111,735,000,0,0.025118864315095787,0,0.2245457249955507
111,736,400,0.10783941457135181,0.031622776601683784,0,99
111,737,200,0.053919707285675904,0.019952623149688792,0,0.20782547199632972
111,738,800,0.21567882914270362,0.03981071705534971,1,0.1361044149962254
111,739,100,0.026959853642837952,0.039810717055349706,1,0.25627618999715196
111,740,800,0.21567882914270362,0.031622776601683784,0,0.2894037229998503
111,741,000_null,0,0.03162277660168378,0,0.36169018800137565
111,742,200,0.053919707285675904,0.025118864315095798,0,0.1624667860014597
111,743,400,0.10783941457135181,0.03981071705534971,1,0.2382032329987851
111,744,100,0.026959853642837952,0.03162277660168378,0,0.20412945999851217
111,745,000,0,0.03162277660168378,0,0.455382191001263
111,746,400,0.10783941457135181,0.031622776601683784,1,0.41938544000004185
111,747,800,0.21567882914270362,0.03981071705534971,0,0.29269593700155383
111,748,200,0.053919707285675904,0.03162277660168379,1,0.2524894989983295
111,749,100_null,0.026959853642837952,0.039810717055349706,0,0.37075796499993885
111,750,000,0,0.039810717055349706,0,0.276102219002496
111,751,200,0.053919707285675904,0.025118864315095798,1,0.21076135600014823
111,752,400,0.10783941457135181,0.02511886431509579,1,0.24293526700057555
111,753,100_null,0.026959853642837952,0.039810717055349706,0,0.2123249720025342
111,754,800,0.21567882914270362,0.05011872336272721,1,0.13260622099915054
111,755,100,0.026959853642837952,0.039810717055349706,0,0.18876517299941042
111,756,800,0.21567882914270362,0.03981071705534971,1,0.15875556999526452
111,757,000,0,0.050118723362727206,1,0.2581165509982384
111,758,400,0.10783941457135181,0.01995262314968879,0,0.2914345070021227
111,759,200,0.053919707285675904,0.019952623149688792,1,0.2597597220010357
111,760,100,0.026959853642837952,0.050118723362727206,0,0.1579122550028842
111,761,000,0,0.039810717055349706,0,0.230727187001321
111,762,200,0.053919707285675904,0.01584893192461113,1,0.17148110499692848
111,763,800,0.21567882914270362,0.031622776601683784,1,0.1320034879972809
111,764,400_null,0.10783941457135181,0.025118864315095794,1,0.23409135099791456
111,765,100,0.026959853642837952,0.0630957344480193,1,0.21040083399566356
111,766,000,0,0.050118723362727206,1,0.37062919099844294
111,767,400,0.10783941457135181,0.025118864315095794,1,0.4427845550017082
111,768,200,0.053919707285675904,0.012589254117941668,0,0.24385475299641257
111,769,800,0.21567882914270362,0.02511886431509579,1,0.1401773499965202
111,770,200,0.053919707285675904,0.01584893192461113,0,0.33312839599966537
111,771,000,0,0.039810717055349706,1,0.2529464489998645
111,772,800_null,0.21567882914270362,0.01995262314968879,0,0.19148083100299118
111,773,100,0.026959853642837952,0.050118723362727206,1,0.22556136299681384
111,774,400,0.10783941457135181,0.01995262314968879,0,0.17583072099660058
111,775,400,0.10783941457135181,0.025118864315095794,1,0.1529528239989304
111,776,800,0.21567882914270362,0.01995262314968879,0,0.11315519100025995
111,777,000,0,0.03162277660168378,0,0.43030759199609747
111,778,200,0.053919707285675904,0.019952623149688792,0,0.47932398499688134
111,779,100_null,0.026959853642837952,0.039810717055349706,1,0.2697719329953543
111,780,800_null,0.21567882914270362,0.025118864315095794,0,0.3258446979962173
111,781,100,0.026959853642837952,0.039810717055349706,1,0.41373486499651335
111,782,400,0.10783941457135181,0.01995262314968879,0,0.237877790001221
111,783,200,0.053919707285675904,0.025118864315095798,0,0.17410298100003274
111,784,000_null,0,0.039810717055349706,0,0.38371806500072125
111,785,800_null,0.21567882914270362,0.025118864315095794,0,0.3446431490010582
111,786,200,0.053919707285675904,0.03162277660168379,0,99
111,787,100,0.026959853642837952,0.03162277660168378,1,0.3543636769973091
111,788,400,0.10783941457135181,0.025118864315095794,0,0.21195038999576354
111,789,000,0,0.039810717055349706,1,0.31393943799776025
111,790,000,0,0.03162277660168378,1,0.19484181000007084
111,791,400,0.10783941457135181,0.031622776601683784,1,0.2831950279942248
111,792,200,0.053919707285675904,0.03981071705534973,0,0.14560116299981019
111,793,100,0.026959853642837952,0.025118864315095787,0,0.5057900739993784
111,794,800,0.21567882914270362,0.025118864315095794,1,0.3677721819985891
111,795,200,0.053919707285675904,0.050118723362727234,1,0.1930969120003283
111,796,100,0.026959853642837952,0.03162277660168378,1,0.3294079440020141
111,797,400,0.10783941457135181,0.02511886431509579,0,0.3133644990011817
111,798,800,0.21567882914270362,0.01995262314968879,0,0.3545463709961041
111,799,000,0,0.025118864315095787,0,0.2821329959988361
111,800,400_null,0.10783941457135181,0.031622776601683784,0,0.13976119899598416
111,801,000,0,0.03162277660168378,0,0.28413181000360055
111,802,800,0.21567882914270362,0.025118864315095794,1,0.2940715399963665
111,803,100,0.026959853642837952,0.025118864315095787,0,0.15853792800044175
111,804,200,0.053919707285675904,0.03981071705534973,1,0.28522589700151
111,805,200,0.053919707285675904,0.03162277660168379,1,0.3657299289989169
111,806,400,0.10783941457135181,0.031622776601683784,1,0.3830211969980155
111,807,100_null,0.026959853642837952,0.03162277660168378,0,0.2288810440004454
111,808,800,0.21567882914270362,0.01995262314968879,0,0.03702841899939813
111,809,000,0,0.039810717055349706,1,0.15533708500151988
111,810,000,0,0.03162277660168378,0,0.06024538700148696
111,811,400,0.10783941457135181,0.02511886431509579,1,0.26839063999796053
111,812,100,0.026959853642837952,0.03162277660168378,1,0.2366304189999937
111,813,200,0.053919707285675904,0.025118864315095798,0,0.2369409530001576
111,814,800,0.21567882914270362,0.025118864315095794,1,0.17415565300325397
111,815,100,0.026959853642837952,0.025118864315095787,0,0.20744204500078922
111,816,000,0,0.039810717055349706,1,0.25535225700150477
111,817,200,0.053919707285675904,0.03162277660168379,1,0.29749283799901605
111,818,800,0.21567882914270362,0.01995262314968879,0,0.21893467599875294
111,819,400,0.10783941457135181,0.01995262314968879,1,0.3405427010002313
111,820,400,0.10783941457135181,0.015848931924611127,0,0.3306694940038142
111,821,000,0,0.03162277660168378,0,0.29088387599767884
111,822,800,0.21567882914270362,0.025118864315095794,1,0.28163713299727533
111,823,200,0.053919707285675904,0.025118864315095798,0,0.36139214700233424
111,824,100,0.026959853642837952,0.03162277660168378,0,0.4828292730016983
111,825,800,0.21567882914270362,0.01995262314968879,0,0.46372364000126254
111,826,200,0.053919707285675904,0.03162277660168379,1,0.32095596400176873
111,827,400,0.10783941457135181,0.01995262314968879,0,0.3852206829978968
111,828,100,0.026959853642837952,0.039810717055349706,1,0.306369101999735
111,829,000,0,0.039810717055349706,0,0.3303944850049447
111,830,800,0.21567882914270362,0.025118864315095794,1,0.315732390001358
111,831,200_null,0.053919707285675904,0.025118864315095798,0,0.5237149719978333
111,832,100,0.026959853642837952,0.03162277660168378,0,0.4941338279968477
111,833,400,0.10783941457135181,0.025118864315095794,0,0.47905906600499293
111,834,000,0,0.050118723362727206,1,0.3376598240065505
111,835,200,0.053919707285675904,0.025118864315095798,0,0.37534321600105613
111,836,100,0.026959853642837952,0.039810717055349706,1,0.2713333369974862
111,837,400,0.10783941457135181,0.031622776601683784,0,0.18952890199579997
111,838,000,0,0.039810717055349706,1,0.31800351399579085
111,839,800,0.21567882914270362,0.01995262314968879,0,0.35099470899876906
