id,trial,label,FC,TC,response,RT
114,0,200,0.056759412914348856,0.1,0,1.2211792149992107
114,1,800,0.22703765165739542,0.1,1,0.3979564319997735
114,2,100,0.028379706457174428,0.1,1,0.27017794299899833
114,3,400,0.11351882582869771,0.1,1,0.39880416900086857
114,4,000_null,0,0.1,0,0.5364805799999885
114,5,100,0.028379706457174428,0.07943282347242815,1,0.5138237659994047
114,6,200,0.056759412914348856,0.1,1,0.5460835359990597
114,7,400_null,0.11351882582869771,0.07943282347242815,0,0.6071993489986198
114,8,800,0.22703765165739542,0.07943282347242815,1,0.41642884199973196
114,9,000,0,0.1,1,0.7183217269994202
114,10,000,0,0.07943282347242815,1,0.4864733120011806
114,11,400,0.11351882582869771,0.07943282347242815,1,0.5120815720001701
114,12,200,0.056759412914348856,0.07943282347242815,1,0.3509957080004824
114,13,800,0.22703765165739542,0.06309573444801932,1,0.3750405809987569
114,14,100,0.028379706457174428,0.06309573444801932,1,0.3031298589994549
114,15,800,0.22703765165739542,0.05011872336272722,1,0.36853740400147217
114,16,400,0.11351882582869771,0.06309573444801932,1,0.28104686299957393
114,17,200,0.056759412914348856,0.06309573444801932,1,0.3640064680002979
114,18,000,0,0.06309573444801932,1,0.36490773299919965
114,19,100,0.028379706457174428,0.05011872336272722,1,0.3174177930013684
114,20,100,0.028379706457174428,0.03981071705534971,1,0.5263780679997581
114,21,200,0.056759412914348856,0.05011872336272722,1,0.40764457499972195
114,22,400,0.11351882582869771,0.05011872336272722,1,0.30081344899917895
114,23,800_null,0.22703765165739542,0.03981071705534971,0,0.7577309150001383
114,24,000,0,0.05011872336272722,1,0.3712099050007964
114,25,400,0.11351882582869771,0.03981071705534971,1,0.26809724099985033
114,26,800_null,0.22703765165739542,0.03981071705534971,0,0.47634337799900095
114,27,000,0,0.03981071705534971,1,0.6430095289997553
114,28,100,0.028379706457174428,0.031622776601683784,1,0.4043074070013972
114,29,200_null,0.056759412914348856,0.03981071705534971,0,0.5964186530000006
114,30,800,0.22703765165739542,0.03981071705534971,1,0.4856914369993319
114,31,400,0.11351882582869771,0.031622776601683784,1,0.4221769050000148
114,32,000,0,0.031622776601683784,1,0.39313556399974914
114,33,100,0.028379706457174428,0.02511886431509579,1,0.77734656299981
114,34,200,0.056759412914348856,0.03981071705534971,1,0.42572015799851215
114,35,200,0.056759412914348856,0.031622776601683784,1,0.412445416999617
114,36,000,0,0.02511886431509579,0,0.572702057999777
114,37,400,0.11351882582869771,0.02511886431509579,0,1.11501619900082
114,38,100,0.028379706457174428,0.01995262314968879,0,99
114,39,800,0.22703765165739542,0.031622776601683784,1,0.5942628240009071
114,40,100,0.028379706457174428,0.025118864315095794,1,0.6957500320004328
114,41,800,0.22703765165739542,0.02511886431509579,0,0.6888354490001802
114,42,000,0,0.031622776601683784,1,0.4715428380004596
114,43,400,0.11351882582869771,0.031622776601683784,1,0.5277798040006019
114,44,200,0.056759412914348856,0.02511886431509579,1,0.40894712600129424
114,45,400,0.11351882582869771,0.02511886431509579,1,0.41736776899961114
114,46,100_null,0.028379706457174428,0.01995262314968879,1,0.39444653400096286
114,47,800,0.22703765165739542,0.031622776601683784,1,0.4516242230001808
114,48,200,0.056759412914348856,0.01995262314968879,1,0.8070137260001502
114,49,000,0,0.02511886431509579,0,0.5371708340007899
114,50,400,0.11351882582869771,0.01995262314968879,1,0.5372244720001618
114,51,100,0.028379706457174428,0.01995262314968879,0,99
114,52,800,0.22703765165739542,0.02511886431509579,0,0.5355380710007012
114,53,000_null,0,0.031622776601683784,0,99
114,54,200,0.056759412914348856,0.015848931924611127,0,0.5994424529999378
114,55,800,0.22703765165739542,0.031622776601683784,1,0.5098685789998854
114,56,100,0.028379706457174428,0.025118864315095794,1,0.6379463510002097
114,57,400,0.11351882582869771,0.015848931924611127,0,0.6302988240004197
114,58,000,0,0.031622776601683784,1,0.42246861000057834
114,59,200,0.056759412914348856,0.01995262314968879,1,0.5505003050002415
114,60,800,0.22703765165739542,0.02511886431509579,0,0.6473022479985957
114,61,100_null,0.028379706457174428,0.01995262314968879,0,0.7760014300001785
114,62,000,0,0.02511886431509579,0,0.5780045519986743
114,63,400,0.11351882582869771,0.01995262314968879,0,0.7562403769989032
114,64,200,0.056759412914348856,0.015848931924611127,0,0.707845240000097
114,65,800,0.22703765165739542,0.031622776601683784,1,0.8274688389992662
114,66,400,0.11351882582869771,0.025118864315095794,1,0.7407143139989785
114,67,000,0,0.031622776601683784,0,99
114,68,200_null,0.056759412914348856,0.01995262314968879,0,0.578746940000201
114,69,100,0.028379706457174428,0.01995262314968879,1,0.7227881630005868
114,70,400,0.11351882582869771,0.01995262314968879,0,0.681009369000094
114,71,100,0.028379706457174428,0.015848931924611127,0,99
114,72,200,0.056759412914348856,0.01995262314968879,1,1.2335866850007733
114,73,000,0,0.03981071705534971,1,0.6497696910009836
114,74,800,0.22703765165739542,0.02511886431509579,0,0.8094536059998063
114,75,100,0.028379706457174428,0.01995262314968879,0,1.1308936570003425
114,76,800,0.22703765165739542,0.031622776601683784,1,0.9243979710008716
114,77,200,0.056759412914348856,0.015848931924611127,1,0.5171520139992936
114,78,400,0.11351882582869771,0.025118864315095794,1,0.8144260639983258
114,79,000,0,0.031622776601683784,0,0.7515217880009004
114,80,800,0.22703765165739542,0.02511886431509579,0,1.2776318359992729
114,81,000,0,0.03981071705534971,1,0.4866299599998456
114,82,100,0.028379706457174428,0.025118864315095794,1,0.47089112300091074
114,83,200,0.056759412914348856,0.012589254117941666,0,0.669363245000568
114,84,400,0.11351882582869771,0.01995262314968879,0,0.5971196529990266
114,85,800,0.22703765165739542,0.031622776601683784,1,0.4515771059996041
114,86,200,0.056759412914348856,0.015848931924611127,1,0.8118295979984396
114,87,100,0.028379706457174428,0.01995262314968879,0,0.5492230410000047
114,88,400,0.11351882582869771,0.025118864315095794,1,0.6449256720006815
114,89,000,0,0.031622776601683784,1,0.7810612979992584
114,90,100,0.028379706457174428,0.025118864315095794,1,0.7024308359996212
114,91,200,0.056759412914348856,0.012589254117941666,0,0.5184210610004811
114,92,800,0.22703765165739542,0.02511886431509579,1,0.6239395800002967
114,93,400,0.11351882582869771,0.01995262314968879,0,99
114,94,000,0,0.02511886431509579,0,0.9071052669987694
114,95,200,0.056759412914348856,0.015848931924611127,0,1.0814976819983713
114,96,000,0,0.031622776601683784,0,0.6972562179998931
114,97,400,0.11351882582869771,0.025118864315095794,1,0.7297624660004658
114,98,800,0.22703765165739542,0.01995262314968879,0,0.7916316610007925
114,99,100,0.028379706457174428,0.01995262314968879,0,0.7440126679994137
114,100,000,0,0.03981071705534971,1,0.6782247030005237
114,101,100,0.028379706457174428,0.025118864315095794,1,1.1674260660001892
114,102,400,0.11351882582869771,0.01995262314968879,1,0.9592037130005338
114,103,200,0.056759412914348856,0.01995262314968879,0,99
114,104,800_null,0.22703765165739542,0.025118864315095794,0,1.0954124439995212
114,105,100,0.028379706457174428,0.01995262314968879,0,0.9289830499983509
114,106,000,0,0.031622776601683784,1,0.6649047509999946
114,107,200,0.056759412914348856,0.025118864315095794,1,1.0970941909999965
114,108,800,0.22703765165739542,0.025118864315095794,1,0.7387263649998204
114,109,400,0.11351882582869771,0.015848931924611127,0,99
114,110,200,0.056759412914348856,0.01995262314968879,1,0.5625263799993263
114,111,100,0.028379706457174428,0.025118864315095794,1,0.6281733020005049
114,112,800,0.22703765165739542,0.01995262314968879,0,0.45194468399859034
114,113,000,0,0.02511886431509579,0,0.7941165390002425
114,114,400,0.11351882582869771,0.01995262314968879,1,1.042266397000276
114,115,200,0.056759412914348856,0.015848931924611127,1,0.7606568659994082
114,116,400,0.11351882582869771,0.015848931924611127,0,99
114,117,000,0,0.031622776601683784,0,1.2965876569996908
114,118,800,0.22703765165739542,0.025118864315095794,0,0.834105815998555
114,119,100,0.028379706457174428,0.01995262314968879,0,0.7382660290004424
114,120,800,0.22703765165739542,0.031622776601683784,0,0.65701663100117
114,121,000,0,0.03981071705534971,0,0.3692810919983458
114,122,200,0.056759412914348856,0.012589254117941666,0,0.4022549960009201
114,123,100,0.028379706457174428,0.025118864315095794,0,0.5122581469986471
114,124,400,0.11351882582869771,0.01995262314968879,0,0.46442913499959104
114,125,400,0.11351882582869771,0.025118864315095794,0,0.4737873270005366
114,126,100,0.028379706457174428,0.031622776601683784,1,0.48999597299916786
114,127,000,0,0.05011872336272721,1,0.46691172200007713
114,128,800,0.22703765165739542,0.03981071705534971,1,0.41234397900007025
114,129,200,0.056759412914348856,0.015848931924611127,0,0.5803290290004952
114,130,800,0.22703765165739542,0.031622776601683784,0,0.5735206649987958
114,131,200,0.056759412914348856,0.01995262314968879,0,0.5116503970002668
114,132,100,0.028379706457174428,0.02511886431509579,0,0.8405440250007814
114,133,400,0.11351882582869771,0.031622776601683784,0,0.5981255940005212
114,134,000,0,0.03981071705534971,1,0.4631166840008518
114,135,100,0.028379706457174428,0.031622776601683784,1,0.4605157829992095
114,136,400,0.11351882582869771,0.03981071705534971,1,0.4536953259994334
114,137,800,0.22703765165739542,0.03981071705534971,1,0.42144637499950477
114,138,000,0,0.031622776601683784,0,0.5568263059994933
114,139,200,0.056759412914348856,0.025118864315095794,1,0.3408766829998058
114,140,100,0.028379706457174428,0.02511886431509579,1,0.5972256200002448
114,141,200,0.056759412914348856,0.01995262314968879,0,0.4778973640004551
114,142,000,0,0.03981071705534971,1,0.4955076349997398
114,143,800,0.22703765165739542,0.031622776601683784,0,0.9834873149993655
114,144,400_null,0.11351882582869771,0.031622776601683784,0,0.5207262650001212
114,145,200,0.056759412914348856,0.025118864315095794,0,0.4736345689998416
114,146,800,0.22703765165739542,0.03981071705534971,1,0.363389260999611
114,147,100,0.028379706457174428,0.01995262314968879,1,0.3239958899994235
114,148,400,0.11351882582869771,0.031622776601683784,1,0.5225237819995527
114,149,000,0,0.031622776601683784,1,0.41799815599915746
114,150,400,0.11351882582869771,0.02511886431509579,1,0.6167619639982149
114,151,000,0,0.02511886431509579,1,0.5530676350008434
114,152,800,0.22703765165739542,0.031622776601683784,1,0.47370629599936365
114,153,100,0.028379706457174428,0.015848931924611127,0,0.5761101370007964
114,154,200,0.056759412914348856,0.031622776601683784,1,0.5510256379984639
114,155,200,0.056759412914348856,0.02511886431509579,1,0.45578058600040094
114,156,100_null,0.028379706457174428,0.01995262314968879,1,0.46373068899993086
114,157,800,0.22703765165739542,0.02511886431509579,0,0.6251077599990822
114,158,400,0.11351882582869771,0.01995262314968879,0,0.7538852359994053
114,159,000,0,0.01995262314968879,0,99
114,160,100,0.028379706457174428,0.01995262314968879,0,0.5852338780005084
114,161,000,0,0.025118864315095794,0,0.36495217499941646
114,162,400,0.11351882582869771,0.025118864315095794,1,0.7175884510015749
114,163,200,0.056759412914348856,0.01995262314968879,0,0.6747911250004108
114,164,800,0.22703765165739542,0.031622776601683784,1,0.5082460350004112
114,165,100,0.028379706457174428,0.025118864315095794,0,0.8679584609999438
114,166,400,0.11351882582869771,0.01995262314968879,0,0.6581705900007364
114,167,200,0.056759412914348856,0.025118864315095794,1,0.5703252380008053
114,168,000,0,0.031622776601683784,1,0.6495981419993768
114,169,800,0.22703765165739542,0.02511886431509579,0,0.6987992230006057
114,170,100_null,0.028379706457174428,0.031622776601683784,0,0.866824466998878
114,171,800_null,0.22703765165739542,0.031622776601683784,0,0.7478407409998908
114,172,000_null,0,0.02511886431509579,0,0.5726454870000453
114,173,200,0.056759412914348856,0.01995262314968879,0,0.5810838919987873
114,174,400,0.11351882582869771,0.025118864315095794,1,0.5426938060008979
114,175,400,0.11351882582869771,0.01995262314968879,0,0.7748607690009521
114,176,100,0.028379706457174428,0.031622776601683784,1,0.5839367900007346
114,177,800,0.22703765165739542,0.031622776601683784,1,0.4581604739996692
114,178,200,0.056759412914348856,0.025118864315095794,1,0.4222601109995594
114,179,000,0,0.02511886431509579,1,1.143110570999852
114,180,400,0.11351882582869771,0.025118864315095794,1,0.5605455040004017
114,181,100,0.028379706457174428,0.02511886431509579,1,0.429620437000267
114,182,000,0,0.01995262314968879,0,0.550751221999235
114,183,800,0.22703765165739542,0.02511886431509579,1,0.5498805869992793
114,184,200,0.056759412914348856,0.01995262314968879,1,0.5739563629995246
114,185,800,0.22703765165739542,0.01995262314968879,1,0.439527549999184
114,186,100,0.028379706457174428,0.01995262314968879,1,0.399717991000216
114,187,200,0.056759412914348856,0.015848931924611127,1,0.3765700090007158
114,188,400,0.11351882582869771,0.01995262314968879,0,0.5860494409989769
114,189,000,0,0.025118864315095794,1,0.5651336699993408
114,190,800,0.22703765165739542,0.015848931924611127,1,1.1422577850007656
114,191,400,0.11351882582869771,0.025118864315095794,1,0.4944314439999289
114,192,100,0.028379706457174428,0.015848931924611127,1,0.22939497500010475
114,193,200,0.056759412914348856,0.012589254117941666,0,0.2202564489998622
114,194,000,0,0.01995262314968879,0,0.4288041020008677
114,195,200,0.056759412914348856,0.015848931924611127,0,0.3727281960000255
114,196,400,0.11351882582869771,0.01995262314968879,1,0.3948856300012267
114,197,800,0.22703765165739542,0.012589254117941666,0,0.5238973850009643
114,198,100,0.028379706457174428,0.012589254117941666,1,0.6355349229997955
114,199,000,0,0.025118864315095794,1,0.5076727439991373
114,200,200,0.056759412914348856,0.01995262314968879,1,0.6206268580008327
114,201,800,0.22703765165739542,0.015848931924611127,1,0.5490403480016539
114,202,400,0.11351882582869771,0.015848931924611127,0,0.2381262009985221
114,203,100,0.028379706457174428,0.009999999999999995,0,0.3764636519990745
114,204,000,0,0.01995262314968879,0,0.27435712900114595
114,205,800,0.22703765165739542,0.012589254117941666,0,0.39556460400126525
114,206,400,0.11351882582869771,0.01995262314968879,0,0.72186006100128
114,207,100,0.028379706457174428,0.012589254117941666,0,0.6499082669997733
114,208,200,0.056759412914348856,0.015848931924611127,1,0.5890695800007961
114,209,000,0,0.025118864315095794,0,0.2972798940008943
114,210,800,0.22703765165739542,0.015848931924611127,0,0.490102328998546
114,211,000,0,0.031622776601683784,1,0.6086140900006285
114,212,200,0.056759412914348856,0.012589254117941666,0,0.5757096580000507
114,213,400,0.11351882582869771,0.025118864315095794,1,0.5996247969997057
114,214,100,0.028379706457174428,0.015848931924611127,1,0.5520659710000473
114,215,100,0.028379706457174428,0.012589254117941666,1,0.4563069439991523
114,216,800,0.22703765165739542,0.01995262314968879,0,0.673473450999154
114,217,000,0,0.02511886431509579,0,0.8171471460009343
114,218,400_null,0.11351882582869771,0.01995262314968879,0,0.45848928799932764
114,219,200,0.056759412914348856,0.015848931924611127,0,0.2610525990003225
114,220,400,0.11351882582869771,0.01995262314968879,0,0.533717621001415
114,221,100,0.028379706457174428,0.009999999999999995,0,0.41199117099858995
114,222,200,0.056759412914348856,0.01995262314968879,0,0.8213091800007533
114,223,800,0.22703765165739542,0.025118864315095794,1,0.6612508919988613
114,224,000,0,0.031622776601683784,1,0.6196265949984081
114,225,200,0.056759412914348856,0.025118864315095794,1,0.7954498770013743
114,226,400,0.11351882582869771,0.025118864315095794,1,0.7217604230008874
114,227,800,0.22703765165739542,0.01995262314968879,1,0.5702811959999963
114,228,100,0.028379706457174428,0.012589254117941666,1,0.36303007300011814
114,229,000_null,0,0.02511886431509579,0,0.5071735660003469
114,230,800,0.22703765165739542,0.015848931924611127,0,1.0673782319991005
114,231,000,0,0.02511886431509579,0,0.7969543689996499
114,232,100,0.028379706457174428,0.009999999999999995,0,0.4368217179999192
114,233,200,0.056759412914348856,0.01995262314968879,0,0.5419919790001586
114,234,400,0.11351882582869771,0.01995262314968879,0,0.832396151001376
114,235,800,0.22703765165739542,0.01995262314968879,0,0.6734568619995116
114,236,100,0.028379706457174428,0.012589254117941666,0,0.4965460149996943
114,237,200,0.056759412914348856,0.025118864315095794,1,0.6084876860004442
114,238,400_null,0.11351882582869771,0.025118864315095794,0,0.6730285699995875
114,239,000,0,0.031622776601683784,1,0.9107573239998601
114,240,400,0.11351882582869771,0.025118864315095794,0,0.6214629630012496
114,241,100,0.028379706457174428,0.015848931924611127,0,0.5660048800000368
114,242,800,0.22703765165739542,0.025118864315095794,0,0.5106942229995184
114,243,000,0,0.02511886431509579,0,0.5189919840013317
114,244,200,0.056759412914348856,0.01995262314968879,0,0.41593959700003325
114,245,100,0.028379706457174428,0.01995262314968879,1,0.5383220200001233
114,246,200,0.056759412914348856,0.025118864315095794,1,0.5203737709998677
114,247,800,0.22703765165739542,0.031622776601683784,1,0.4334185889983928
114,248,400,0.11351882582869771,0.031622776601683784,1,0.45869239900093817
114,249,000,0,0.031622776601683784,0,0.4640073310001753
114,250,000,0,0.03981071705534971,1,0.489030892998926
114,251,800,0.22703765165739542,0.02511886431509579,0,0.5260529580009461
114,252,400,0.11351882582869771,0.02511886431509579,0,0.7271349670008931
114,253,200,0.056759412914348856,0.01995262314968879,0,0.6957505789996503
114,254,100,0.028379706457174428,0.015848931924611127,0,1.0399928930000897
114,255,800,0.22703765165739542,0.031622776601683784,1,0.5844642609990842
114,256,200,0.056759412914348856,0.025118864315095794,0,0.858313939999789
114,257,100_null,0.028379706457174428,0.01995262314968879,0,0.4262217209998198
114,258,400,0.11351882582869771,0.031622776601683784,0,0.6271255550000205
114,259,000,0,0.031622776601683784,1,0.5318542550012353
114,260,400,0.11351882582869771,0.03981071705534971,1,0.461007627998697
114,261,000,0,0.02511886431509579,1,0.5117564050015062
114,262,100,0.028379706457174428,0.01995262314968879,1,0.7887847429992689
114,263,200,0.056759412914348856,0.031622776601683784,1,0.7578172510002332
114,264,800,0.22703765165739542,0.02511886431509579,1,0.4912559770000371
114,265,000,0,0.01995262314968879,1,0.4363097650002601
114,266,100,0.028379706457174428,0.015848931924611127,0,0.925597244000528
114,267,400,0.11351882582869771,0.031622776601683784,0,0.4905696839996381
114,268,800,0.22703765165739542,0.01995262314968879,0,0.3640623619994585
114,269,200,0.056759412914348856,0.02511886431509579,1,0.7228895940006623
114,270,200,0.056759412914348856,0.01995262314968879,1,0.667693755000073
114,271,100,0.028379706457174428,0.01995262314968879,0,0.6123638709996158
114,272,400,0.11351882582869771,0.03981071705534971,1,0.7405832149997877
114,273,800,0.22703765165739542,0.025118864315095794,0,0.5973905530008778
114,274,000,0,0.015848931924611127,0,0.4869384190005803
114,275,800,0.22703765165739542,0.031622776601683784,1,0.4489836060001835
114,276,400,0.11351882582869771,0.031622776601683784,1,0.5307293240002764
114,277,100,0.028379706457174428,0.025118864315095794,0,0.3762539330000436
114,278,200_null,0.056759412914348856,0.015848931924611127,0,0.6015221640009258
114,279,000,0,0.01995262314968879,1,0.5508496929996909
114,280,400,0.11351882582869771,0.02511886431509579,1,0.5440283010011626
114,281,800,0.22703765165739542,0.02511886431509579,1,0.3756806769997638
114,282,000,0,0.015848931924611127,0,0.2939138220008317
114,283,100,0.028379706457174428,0.031622776601683784,0,0.7751899019986013
114,284,200,0.056759412914348856,0.015848931924611127,0,0.4794609500004299
114,285,100,0.028379706457174428,0.03981071705534971,1,0.8325556800009508
114,286,200,0.056759412914348856,0.01995262314968879,1,0.8165392910013907
114,287,800,0.22703765165739542,0.01995262314968879,0,0.5220911889991839
114,288,000,0,0.01995262314968879,0,0.4662633050011209
114,289,400,0.11351882582869771,0.01995262314968879,0,0.6043673429994669
114,290,800,0.22703765165739542,0.025118864315095794,1,0.6372589740003605
114,291,000,0,0.025118864315095794,1,0.614354416000424
114,292,400,0.11351882582869771,0.025118864315095794,0,0.7957734680003341
114,293,100,0.028379706457174428,0.031622776601683784,1,0.5326333190005244
114,294,200,0.056759412914348856,0.015848931924611127,1,0.5784075760002452
114,295,100,0.028379706457174428,0.02511886431509579,1,0.7553631779992429
114,296,800,0.22703765165739542,0.01995262314968879,1,0.5643562759996712
114,297,400,0.11351882582869771,0.031622776601683784,1,0.51476287100013
114,298,000,0,0.01995262314968879,0,0.6347143600014533
114,299,200,0.056759412914348856,0.012589254117941666,0,0.6999629470010404
114,300,100,0.028379706457174428,0.01995262314968879,0,0.6680303159992036
114,301,000,0,0.025118864315095794,0,0.6052979830001277
114,302,400,0.11351882582869771,0.02511886431509579,0,0.909256283999639
114,303,200,0.056759412914348856,0.015848931924611127,1,0.606533006999598
114,304,800_null,0.22703765165739542,0.015848931924611127,0,0.7420356639995589
114,305,800,0.22703765165739542,0.015848931924611127,0,0.5130067999998573
114,306,100,0.028379706457174428,0.025118864315095794,1,0.5778660350006248
114,307,200,0.056759412914348856,0.012589254117941666,0,0.688127588999123
114,308,000,0,0.031622776601683784,1,0.5840475469994999
114,309,400,0.11351882582869771,0.031622776601683784,1,0.6942290930001036
114,310,800,0.22703765165739542,0.01995262314968879,0,0.5596831510010816
114,311,400,0.11351882582869771,0.02511886431509579,1,0.6715494519994536
114,312,200,0.056759412914348856,0.015848931924611127,0,1.0060651229996438
114,313,100,0.028379706457174428,0.01995262314968879,0,0.9019070440008363
114,314,000,0,0.02511886431509579,1,0.8225777730003756
114,315,400,0.11351882582869771,0.01995262314968879,0,0.5515180220008915
114,316,800,0.22703765165739542,0.025118864315095794,0,0.5843611170002987
114,317,000,0,0.01995262314968879,0,0.8568031499999051
114,318,100,0.028379706457174428,0.025118864315095794,0,0.8180159509993246
114,319,200,0.056759412914348856,0.01995262314968879,1,0.6989159360000485
114,320,100,0.028379706457174428,0.031622776601683784,1,0.596240023000064
114,321,400,0.11351882582869771,0.025118864315095794,1,0.5653209370011609
114,322,800,0.22703765165739542,0.031622776601683784,1,0.4754465320002055
114,323,200_null,0.056759412914348856,0.015848931924611127,1,1.0193614969994087
114,324,000,0,0.025118864315095794,0,99
114,325,200,0.056759412914348856,0.015848931924611127,0,99
114,326,100,0.028379706457174428,0.02511886431509579,0,0.06550201199934236
114,327,000,0,0.031622776601683784,0,0.4153586370011908
114,328,400,0.11351882582869771,0.01995262314968879,0,0.6082962010004849
114,329,800,0.22703765165739542,0.02511886431509579,1,0.6726514920010231
114,330,100,0.028379706457174428,0.031622776601683784,0,0.6098562240003957
114,331,400,0.11351882582869771,0.025118864315095794,1,0.5871086870010913
114,332,800,0.22703765165739542,0.01995262314968879,0,0.6931712300010986
114,333,200,0.056759412914348856,0.01995262314968879,1,0.7740914419991896
114,334,000,0,0.03981071705534971,0,0.9345846500000334
114,335,200,0.056759412914348856,0.015848931924611127,0,0.7370315930002107
114,336,000,0,0.05011872336272721,1,0.6249111650013219
114,337,400,0.11351882582869771,0.01995262314968879,0,0.6947739160004858
114,338,100,0.028379706457174428,0.03981071705534971,1,0.6243237290000252
114,339,800,0.22703765165739542,0.025118864315095794,1,0.7772111860012956
114,340,000,0,0.03981071705534971,1,0.7102418270005728
114,341,800,0.22703765165739542,0.01995262314968879,0,0.7273231449999003
114,342,100,0.028379706457174428,0.031622776601683784,1,0.6466692729991337
114,343,400,0.11351882582869771,0.025118864315095794,1,0.4865275529991777
114,344,200,0.056759412914348856,0.01995262314968879,1,0.44761975099936535
114,345,200,0.056759412914348856,0.015848931924611127,0,0.560276922000412
114,346,000,0,0.031622776601683784,1,0.8495256589994824
114,347,400,0.11351882582869771,0.01995262314968879,1,0.6756134859988379
114,348,100_null,0.028379706457174428,0.02511886431509579,1,1.0368856839995715
114,349,800,0.22703765165739542,0.025118864315095794,0,0.4712637039992842
114,350,100,0.028379706457174428,0.02511886431509579,0,0.44712968899875705
114,351,400,0.11351882582869771,0.015848931924611127,0,0.23343180299889355
114,352,800,0.22703765165739542,0.031622776601683784,0,0.03545276099976036
114,353,000,0,0.02511886431509579,0,0.7032381589997385
114,354,200,0.056759412914348856,0.01995262314968879,0,0.19260009599929617
114,355,000,0,0.031622776601683784,0,99
114,356,200,0.056759412914348856,0.025118864315095794,1,0.42205937299877405
114,357,400,0.11351882582869771,0.01995262314968879,1,0.775196948001394
114,358,800,0.22703765165739542,0.03981071705534971,1,0.43798396999955
114,359,100,0.028379706457174428,0.031622776601683784,1,0.5992259750000812
114,360,800,0.22703765165739542,0.031622776601683784,0,0.5653600610003195
114,361,000,0,0.03981071705534971,0,0.3589111259989295
114,362,100,0.028379706457174428,0.02511886431509579,0,0.23975278599937155
114,363,400,0.11351882582869771,0.015848931924611127,0,0.12189995299922884
114,364,200,0.056759412914348856,0.01995262314968879,0,0.16330094700060727
114,365,000,0,0.05011872336272721,0,0.30521128000145836
114,366,400,0.11351882582869771,0.01995262314968879,0,0.32938898599968525
114,367,100,0.028379706457174428,0.031622776601683784,1,0.3757029230000626
114,368,800_null,0.22703765165739542,0.03981071705534971,0,0.38443772599930526
114,369,200,0.056759412914348856,0.025118864315095794,1,0.37701339299928804
114,370,100,0.028379706457174428,0.02511886431509579,0,0.3191455109990784
114,371,400,0.11351882582869771,0.025118864315095794,0,0.5189983359996404
114,372,200,0.056759412914348856,0.01995262314968879,1,0.4392690379991109
114,373,800_null,0.22703765165739542,0.03981071705534971,1,0.40874044299926027
114,374,000,0,0.0630957344480193,1,0.37675485299951106
114,375,800,0.22703765165739542,0.03981071705534971,1,0.5300388859996019
114,376,400,0.11351882582869771,0.031622776601683784,1,0.3696982300007221
114,377,000_null,0,0.050118723362727206,0,0.45094107200020517
114,378,200,0.056759412914348856,0.015848931924611127,0,0.876771805998942
114,379,100,0.028379706457174428,0.031622776601683784,1,0.5424135550001665
114,380,400,0.11351882582869771,0.02511886431509579,1,0.5326886669990927
114,381,800_null,0.22703765165739542,0.031622776601683784,0,0.42855921399859653
114,382,100,0.028379706457174428,0.02511886431509579,1,0.950270729001204
114,383,200_null,0.056759412914348856,0.01995262314968879,0,0.9950160110001889
114,384,000,0,0.050118723362727206,1,0.5872123870012729
114,385,000,0,0.039810717055349706,0,0.5771656609995262
114,386,400,0.11351882582869771,0.01995262314968879,1,0.4976607080006943
114,387,100_null,0.028379706457174428,0.01995262314968879,0,0.6108129330004886
114,388,200,0.056759412914348856,0.01995262314968879,0,0.4830420700000104
114,389,800,0.22703765165739542,0.031622776601683784,0,0.7161888350001391
114,390,000_null,0,0.050118723362727206,0,0.7241846079996321
114,391,400,0.11351882582869771,0.015848931924611127,0,0.6693162060000759
114,392,800,0.22703765165739542,0.03981071705534971,1,0.5655241009990277
114,393,100_null,0.028379706457174428,0.01995262314968879,0,0.78372609500002
114,394,200,0.056759412914348856,0.025118864315095794,1,0.5284688200008532
114,395,000,0,0.050118723362727206,1,0.3832117729998572
114,396,800,0.22703765165739542,0.031622776601683784,1,0.3682233819999965
114,397,200,0.056759412914348856,0.01995262314968879,0,0.5124034529999335
114,398,100,0.028379706457174428,0.01995262314968879,0,0.41445243199996185
114,399,400,0.11351882582869771,0.01995262314968879,1,0.4319536530001642
114,400,000,0,0.039810717055349706,1,0.3489961889990809
114,401,100,0.028379706457174428,0.025118864315095794,0,0.6461406309990707
114,402,800,0.22703765165739542,0.02511886431509579,0,0.5103903180006455
114,403,400,0.11351882582869771,0.015848931924611127,1,0.7024286380001286
114,404,200,0.056759412914348856,0.025118864315095794,1,0.46324154200010526
114,405,800,0.22703765165739542,0.031622776601683784,1,0.4889035079995665
114,406,200,0.056759412914348856,0.01995262314968879,0,0.5127366870001424
114,407,400,0.11351882582869771,0.012589254117941666,0,0.6019896680008969
114,408,000,0,0.03162277660168378,1,0.9394881780008291
114,409,100,0.028379706457174428,0.031622776601683784,0,1.0361951680006314
114,410,400_null,0.11351882582869771,0.015848931924611127,0,0.7188626730003307
114,411,200,0.056759412914348856,0.025118864315095794,1,0.6284413800003676
114,412,800,0.22703765165739542,0.02511886431509579,1,0.7410338290010259
114,413,100_null,0.028379706457174428,0.03981071705534971,1,0.6027630789994873
114,414,000,0,0.025118864315095787,1,0.4841000409996923
114,415,100,0.028379706457174428,0.03981071705534971,1,0.4334603759998572
114,416,400,0.11351882582869771,0.015848931924611127,0,0.5143212519997178
114,417,200,0.056759412914348856,0.01995262314968879,0,99
114,418,000,0,0.019952623149688785,0,0.6424168509984156
114,419,800,0.22703765165739542,0.01995262314968879,0,0.5161188160000165
114,420,800_null,0.22703765165739542,0.025118864315095794,0,0.4842272450005112
114,421,000_null,0,0.025118864315095787,0,0.13331823800035636
114,422,400,0.11351882582869771,0.01995262314968879,0,0.24545522299922595
114,423,100,0.028379706457174428,0.031622776601683784,1,0.44725985799959744
114,424,200,0.056759412914348856,0.025118864315095794,1,0.3683879660002276
114,425,000,0,0.025118864315095787,0,99
114,426,200_null,0.056759412914348856,0.01995262314968879,0,0.9281155239987129
114,427,400_null,0.11351882582869771,0.025118864315095794,0,0.31229644699851633
114,428,800,0.22703765165739542,0.025118864315095794,0,0.28661186899989843
114,429,100_null,0.028379706457174428,0.02511886431509579,0,0.4222060350002721
114,430,100,0.028379706457174428,0.02511886431509579,0,0.6478080460001365
114,431,400,0.11351882582869771,0.025118864315095794,1,0.8299077579995355
114,432,200,0.056759412914348856,0.01995262314968879,1,0.5418446349995065
114,433,000,0,0.03162277660168378,1,0.49497980200067104
114,434,800,0.22703765165739542,0.031622776601683784,1,0.9029586249998829
114,435,000,0,0.025118864315095787,1,0.46434258699991915
114,436,800,0.22703765165739542,0.02511886431509579,0,0.5609344160002365
114,437,100,0.028379706457174428,0.031622776601683784,0,0.5298822159984411
114,438,200,0.056759412914348856,0.015848931924611127,1,0.4508586829997512
114,439,400,0.11351882582869771,0.01995262314968879,0,0.6924671249998937
114,440,800_null,0.22703765165739542,0.031622776601683784,0,0.8138800870001432
114,441,400,0.11351882582869771,0.025118864315095794,1,0.65870943399932
114,442,200,0.056759412914348856,0.012589254117941666,0,0.8275461709999945
114,443,000,0,0.019952623149688785,0,0.7768231190002552
114,444,100,0.028379706457174428,0.03981071705534971,0,0.7379586890001519
114,445,400,0.11351882582869771,0.01995262314968879,0,0.8111773349992291
114,446,100,0.028379706457174428,0.05011872336272721,1,0.5930246099997021
114,447,200,0.056759412914348856,0.015848931924611127,1,0.4895489179998549
114,448,800,0.22703765165739542,0.031622776601683784,1,0.47487840699977824
114,449,000,0,0.025118864315095787,0,0.8188737670006958
114,450,200,0.056759412914348856,0.012589254117941666,0,0.7875664129987854
114,451,000,0,0.03162277660168378,1,0.5480032249997748
114,452,800,0.22703765165739542,0.02511886431509579,0,1.0531934139999066
114,453,100,0.028379706457174428,0.03981071705534971,0,1.0865195110000059
114,454,400,0.11351882582869771,0.025118864315095794,0,1.0632580499986943
114,455,800,0.22703765165739542,0.031622776601683784,1,0.6887695050008915
114,456,000,0,0.025118864315095787,0,0.5347484799985978
114,457,200_null,0.056759412914348856,0.015848931924611127,0,0.8947745290006424
114,458,100,0.028379706457174428,0.05011872336272721,1,1.1253589330008253
114,459,400_null,0.11351882582869771,0.031622776601683784,0,0.66094006899948
114,460,000,0,0.03162277660168378,1,0.4781951320001099
114,461,100_null,0.028379706457174428,0.03981071705534971,0,99
114,462,200,0.056759412914348856,0.015848931924611127,0,0.47682087300017884
114,463,400,0.11351882582869771,0.031622776601683784,1,0.3338508489996457
114,464,800,0.22703765165739542,0.02511886431509579,1,0.830016911999337
114,465,100,0.028379706457174428,0.03981071705534971,1,0.4473899220010935
114,466,000,0,0.025118864315095787,0,0.5766347589997167
114,467,200,0.056759412914348856,0.01995262314968879,0,0.6248484289990301
114,468,400,0.11351882582869771,0.02511886431509579,0,0.27266336100001354
114,469,800,0.22703765165739542,0.01995262314968879,1,0.6280542949989467
114,470,000,0,0.03162277660168378,0,0.7902028329990571
114,471,400,0.11351882582869771,0.031622776601683784,1,0.6107790940004634
114,472,200_null,0.056759412914348856,0.025118864315095794,0,0.4921141329996317
114,473,800,0.22703765165739542,0.015848931924611127,0,0.5007201799999166
114,474,100,0.028379706457174428,0.031622776601683784,1,0.3859564930007764
114,475,800,0.22703765165739542,0.01995262314968879,0,0.4991145610001695
114,476,200,0.056759412914348856,0.025118864315095794,1,0.45005204799963394
114,477,100,0.028379706457174428,0.02511886431509579,1,0.46611405800103967
114,478,000_null,0,0.039810717055349706,0,0.49126620900096896
114,479,400_null,0.11351882582869771,0.02511886431509579,0,0.6279026770007476
114,480,000,0,0.039810717055349706,0,1.2825355120003223
114,481,400,0.11351882582869771,0.02511886431509579,0,0.4589611370010971
114,482,200,0.056759412914348856,0.01995262314968879,0,0.2759097689995542
114,483,800,0.22703765165739542,0.025118864315095794,0,0.46711851799955184
114,484,100,0.028379706457174428,0.01995262314968879,0,0.38724667499991483
114,485,200,0.056759412914348856,0.025118864315095794,0,0.3323055099990597
114,486,800_null,0.22703765165739542,0.031622776601683784,0,0.42972209899926384
114,487,000,0,0.050118723362727206,1,0.38160791599875665
114,488,400,0.11351882582869771,0.031622776601683784,1,0.5126097580014175
114,489,100,0.028379706457174428,0.025118864315095794,1,0.48893094699997164
114,490,400,0.11351882582869771,0.02511886431509579,0,0.4823091630005365
114,491,800,0.22703765165739542,0.031622776601683784,1,0.6810265040003287
114,492,200,0.056759412914348856,0.031622776601683784,1,0.32175341000038316
114,493,100_null,0.028379706457174428,0.01995262314968879,0,0.2557003479996638
114,494,000,0,0.039810717055349706,0,0.28859661600108666
114,495,000_null,0,0.050118723362727206,0,0.2550087939998775
114,496,400,0.11351882582869771,0.031622776601683784,1,0.4231204509997042
114,497,200,0.056759412914348856,0.02511886431509579,1,1.2241838560003089
114,498,100,0.028379706457174428,0.01995262314968879,1,0.5103013190000638
114,499,800,0.22703765165739542,0.02511886431509579,1,0.462715401999958
114,500,200,0.056759412914348856,0.01995262314968879,0,0.5679249089989753
114,501,800_null,0.22703765165739542,0.01995262314968879,0,0.41692607199911436
114,502,400,0.11351882582869771,0.02511886431509579,1,0.456944919000307
114,503,100,0.028379706457174428,0.015848931924611127,1,0.4662789789999806
114,504,000,0,0.050118723362727206,1,0.5091498540004977
114,505,800,0.22703765165739542,0.01995262314968879,1,0.7337661300007312
114,506,000_null,0,0.039810717055349706,0,0.452416201998858
114,507,100,0.028379706457174428,0.012589254117941666,0,0.5254437259991391
114,508,200,0.056759412914348856,0.025118864315095794,1,0.8749865789995965
114,509,400,0.11351882582869771,0.01995262314968879,1,0.563966347999667
114,510,400,0.11351882582869771,0.015848931924611127,1,0.6905551319996448
114,511,100,0.028379706457174428,0.015848931924611127,1,0.7704597239990107
114,512,000,0,0.039810717055349706,1,0.45069692299875896
114,513,800,0.22703765165739542,0.015848931924611127,0,0.3869409570015705
114,514,200,0.056759412914348856,0.01995262314968879,0,0.4918664040014846
114,515,400,0.11351882582869771,0.012589254117941666,0,0.4682049040002312
114,516,800,0.22703765165739542,0.01995262314968879,1,0.5014171519997035
114,517,200,0.056759412914348856,0.025118864315095794,1,1.0697125980004785
114,518,000_null,0,0.03162277660168378,0,0.5356602489991928
114,519,100,0.028379706457174428,0.012589254117941666,0,0.4415727749983489
114,520,400,0.11351882582869771,0.015848931924611127,0,0.5059762050004792
114,521,200,0.056759412914348856,0.01995262314968879,1,0.6088780749996658
114,522,100,0.028379706457174428,0.015848931924611127,0,0.9621474489995308
114,523,800,0.22703765165739542,0.015848931924611127,0,0.6952630159994442
114,524,000,0,0.03162277660168378,1,0.5364287890006381
114,525,200,0.056759412914348856,0.015848931924611127,0,0.40883685699918715
114,526,100,0.028379706457174428,0.01995262314968879,0,0.38269292599943583
114,527,000,0,0.025118864315095787,0,0.8238627899991116
114,528,400,0.11351882582869771,0.01995262314968879,1,0.7591198840000288
114,529,800,0.22703765165739542,0.01995262314968879,0,0.5843526119988383
114,530,000,0,0.03162277660168378,1,0.9606141940002999
114,531,800,0.22703765165739542,0.025118864315095794,0,0.7697092250000424
114,532,100,0.028379706457174428,0.025118864315095794,1,0.6588404639987857
114,533,400,0.11351882582869771,0.015848931924611127,0,0.48410599199996796
114,534,200,0.056759412914348856,0.01995262314968879,0,0.6778458790013246
114,535,200,0.056759412914348856,0.025118864315095794,1,0.6630966089996946
114,536,800,0.22703765165739542,0.031622776601683784,1,0.46948782300023595
114,537,100,0.028379706457174428,0.01995262314968879,0,0.7018596340003569
114,538,400,0.11351882582869771,0.01995262314968879,0,0.915935710998383
114,539,000,0,0.025118864315095787,0,99
114,540,000,0,0.03162277660168378,0,99
114,541,800,0.22703765165739542,0.02511886431509579,0,0.5690769040011219
114,542,100,0.028379706457174428,0.025118864315095794,1,0.8263788580006803
114,543,400,0.11351882582869771,0.025118864315095794,1,0.8185539630012499
114,544,200,0.056759412914348856,0.01995262314968879,1,0.5226201850000507
114,545,800,0.22703765165739542,0.031622776601683784,1,0.5795425819997035
114,546,100,0.028379706457174428,0.01995262314968879,0,0.7401465119983186
114,547,200,0.056759412914348856,0.015848931924611127,0,0.7654900499983341
114,548,000,0,0.039810717055349706,1,0.8306189089998952
114,549,400_null,0.11351882582869771,0.01995262314968879,0,1.040147607000108
114,550,800,0.22703765165739542,0.02511886431509579,0,0.5536667769993073
114,551,100,0.028379706457174428,0.025118864315095794,0,1.2318398660008825
114,552,400,0.11351882582869771,0.01995262314968879,0,0.5440433620005933
114,553,200,0.056759412914348856,0.01995262314968879,0,0.34242645199992694
114,554,000,0,0.03162277660168378,1,0.3821350929993059
114,555,100,0.028379706457174428,0.031622776601683784,1,0.38335813300000154
114,556,200,0.056759412914348856,0.025118864315095794,1,0.4437817810012348
114,557,000,0,0.025118864315095787,0,0.4608082029990328
114,558,400,0.11351882582869771,0.025118864315095794,1,0.6127951929993287
114,559,800,0.22703765165739542,0.031622776601683784,1,0.4292972410003131
114,560,000,0,0.03162277660168378,1,0.4863377740002761
114,561,400,0.11351882582869771,0.01995262314968879,1,0.47078901799977757
114,562,800,0.22703765165739542,0.02511886431509579,0,0.527654077999614
114,563,100,0.028379706457174428,0.02511886431509579,1,0.6324105659987254
114,564,200_null,0.056759412914348856,0.01995262314968879,0,0.7376608049999049
114,565,800,0.22703765165739542,0.031622776601683784,0,0.37182662899977004
114,566,200_null,0.056759412914348856,0.01995262314968879,1,1.0104147649999504
114,567,400_null,0.11351882582869771,0.015848931924611127,0,0.7623229239998182
114,568,100,0.028379706457174428,0.01995262314968879,0,0.9046857260000252
114,569,000,0,0.025118864315095787,0,0.4007205210000393
114,570,200,0.056759412914348856,0.01995262314968879,0,0.1061054530000547
114,571,000,0,0.03162277660168378,1,0.3199016179987666
114,572,400,0.11351882582869771,0.015848931924611127,0,0.44017577300110133
114,573,100,0.028379706457174428,0.025118864315095794,1,0.5691923769991263
114,574,800,0.22703765165739542,0.03981071705534971,1,0.7138615780004329
114,575,100,0.028379706457174428,0.01995262314968879,0,0.6668770230007794
114,576,000,0,0.025118864315095787,1,0.8990303779992246
114,577,200,0.056759412914348856,0.025118864315095794,1,0.7638404900008027
114,578,800,0.22703765165739542,0.031622776601683784,1,0.5562811799991323
114,579,400,0.11351882582869771,0.01995262314968879,0,0.4616025459999946
114,580,800,0.22703765165739542,0.02511886431509579,0,0.5762759179997374
114,581,000_null,0,0.019952623149688785,0,0.6057066969988227
114,582,200,0.056759412914348856,0.01995262314968879,1,0.6300952630008396
114,583,100,0.028379706457174428,0.025118864315095794,0,0.5272312510005577
114,584,400,0.11351882582869771,0.025118864315095794,1,0.5574434680002014
114,585,200,0.056759412914348856,0.015848931924611127,1,0.4215735150010005
114,586,800,0.22703765165739542,0.031622776601683784,0,0.4512209639997309
114,587,100,0.028379706457174428,0.031622776601683784,0,0.7643865949994506
114,588,000,0,0.019952623149688785,0,0.7247060370009422
114,589,400,0.11351882582869771,0.01995262314968879,0,0.8297019439996802
114,590,800,0.22703765165739542,0.03981071705534971,1,0.43010330600009183
114,591,000,0,0.025118864315095787,0,0.9033517520001624
114,592,100,0.028379706457174428,0.03981071705534971,0,0.31125102400073956
114,593,200,0.056759412914348856,0.012589254117941666,0,0.3046734039999137
114,594,400_null,0.11351882582869771,0.025118864315095794,0,0.921784738999122
114,595,800,0.22703765165739542,0.031622776601683784,0,0.6037575109985482
114,596,200,0.056759412914348856,0.015848931924611127,0,0.6089768420006294
114,597,000,0,0.03162277660168378,0,0.9224974770004337
114,598,100,0.028379706457174428,0.05011872336272721,1,0.5386235270016186
114,599,400,0.11351882582869771,0.025118864315095794,1,0.6486968560002424
114,600,100,0.028379706457174428,0.03981071705534971,1,0.6241831829993316
114,601,000,0,0.039810717055349706,1,0.5607944629991835
114,602,400,0.11351882582869771,0.01995262314968879,0,0.27297348999854876
114,603,200,0.056759412914348856,0.01995262314968879,0,0.2568281309995655
114,604,800,0.22703765165739542,0.03981071705534971,1,0.4419769369997084
114,605,400,0.11351882582869771,0.025118864315095794,0,0.4502699179993215
114,606,200,0.056759412914348856,0.025118864315095794,0,0.6031331500016677
114,607,800,0.22703765165739542,0.031622776601683784,1,0.5232429429997865
114,608,000,0,0.03162277660168378,1,0.9030943090001529
114,609,100,0.028379706457174428,0.031622776601683784,0,99
114,610,400,0.11351882582869771,0.031622776601683784,1,0.6717913729989959
114,611,100,0.028379706457174428,0.03981071705534971,1,0.4251975700008188
114,612,200,0.056759412914348856,0.031622776601683784,1,0.26742450399979134
114,613,000,0,0.025118864315095787,0,0.35024208899994846
114,614,800,0.22703765165739542,0.02511886431509579,0,0.47044848699988506
114,615,400_null,0.11351882582869771,0.02511886431509579,1,0.38039339300121355
114,616,200,0.056759412914348856,0.02511886431509579,1,0.477872720999585
114,617,000_null,0,0.03162277660168378,1,0.7739895559989236
114,618,800,0.22703765165739542,0.031622776601683784,0,0.9734013100005541
114,619,100,0.028379706457174428,0.031622776601683784,1,0.5665189460014517
114,620,100_null,0.028379706457174428,0.02511886431509579,0,0.4155892600010702
114,621,000,0,0.03162277660168378,0,0.3197860710006353
114,622,200,0.056759412914348856,0.01995262314968879,0,0.6078440279998176
114,623,800,0.22703765165739542,0.03981071705534971,1,0.4193097229999694
114,624,400,0.11351882582869771,0.02511886431509579,1,0.7802826950010058
114,625,800,0.22703765165739542,0.031622776601683784,0,0.9737961299997551
114,626,000,0,0.039810717055349706,1,0.5564619659999153
114,627,200,0.056759412914348856,0.025118864315095794,1,1.0558555890002026
114,628,100,0.028379706457174428,0.02511886431509579,1,0.7475637890001963
114,629,400,0.11351882582869771,0.01995262314968879,0,0.5728384590001951
114,630,800,0.22703765165739542,0.03981071705534971,0,0.4422614049999538
114,631,100,0.028379706457174428,0.01995262314968879,0,0.6752376090007601
114,632,000,0,0.03162277660168378,1,1.0035227759999543
114,633,200,0.056759412914348856,0.01995262314968879,0,99
114,634,400,0.11351882582869771,0.025118864315095794,0,0.41175748400019074
114,635,400,0.11351882582869771,0.031622776601683784,1,0.5969312119996175
114,636,000,0,0.025118864315095787,0,0.6928463080002984
114,637,100,0.028379706457174428,0.025118864315095794,1,1.1335069769993424
114,638,800,0.22703765165739542,0.05011872336272721,1,1.0005562679998548
114,639,200,0.056759412914348856,0.025118864315095794,1,0.8338744970005791
114,640,800,0.22703765165739542,0.03981071705534971,1,0.4407589780003036
114,641,200,0.056759412914348856,0.01995262314968879,1,0.4005905099984375
114,642,400,0.11351882582869771,0.02511886431509579,0,0.6977667110004404
114,643,100,0.028379706457174428,0.01995262314968879,0,1.127424936999887
114,644,000_null,0,0.03162277660168378,0,0.6878197009991709
114,645,400,0.11351882582869771,0.031622776601683784,1,0.4946364339994034
114,646,800,0.22703765165739542,0.031622776601683784,1,0.5826417949992901
114,647,100,0.028379706457174428,0.025118864315095794,0,0.447796152000592
114,648,200,0.056759412914348856,0.015848931924611127,1,0.5682034749988816
114,649,000,0,0.03162277660168378,1,0.5761078039995482
114,650,400,0.11351882582869771,0.02511886431509579,1,0.6412466239999048
114,651,000,0,0.025118864315095787,0,0.47377199699985795
114,652,100,0.028379706457174428,0.031622776601683784,1,0.4587655100003758
114,653,200,0.056759412914348856,0.012589254117941666,0,0.7645393969996803
114,654,800,0.22703765165739542,0.02511886431509579,0,0.8300240749995282
114,655,200,0.056759412914348856,0.015848931924611127,0,0.4073725660000491
114,656,800,0.22703765165739542,0.031622776601683784,1,0.5333837399994081
114,657,400,0.11351882582869771,0.01995262314968879,1,0.6142173009993712
114,658,000,0,0.03162277660168378,1,0.44444887600002403
114,659,100,0.028379706457174428,0.02511886431509579,0,0.6367202619985619
114,660,800,0.22703765165739542,0.02511886431509579,0,0.5260647839986632
114,661,400,0.11351882582869771,0.015848931924611127,1,0.4590624550000939
114,662,000,0,0.025118864315095787,0,0.5964885819994379
114,663,100,0.028379706457174428,0.031622776601683784,0,0.3246764819996315
114,664,200_null,0.056759412914348856,0.01995262314968879,0,0.38852006700108177
114,665,000,0,0.03162277660168378,0,0.5018046349996439
114,666,800,0.22703765165739542,0.031622776601683784,1,0.4376473159991292
114,667,100,0.028379706457174428,0.03981071705534971,1,0.2949903139997332
114,668,200,0.056759412914348856,0.01995262314968879,0,0.5131123849987489
114,669,400,0.11351882582869771,0.012589254117941666,0,0.3947391740002786
114,670,100_null,0.028379706457174428,0.031622776601683784,0,0.28452393599945935
114,671,200_null,0.056759412914348856,0.025118864315095794,0,0.28973268600020674
114,672,800,0.22703765165739542,0.02511886431509579,1,0.37778741599868226
114,673,400,0.11351882582869771,0.015848931924611127,0,0.6323291959997732
114,674,000,0,0.039810717055349706,0,0.4881353910004691
114,675,000,0,0.050118723362727206,1,0.6490227640006196
114,676,100,0.028379706457174428,0.031622776601683784,1,0.4476551860007021
114,677,800,0.22703765165739542,0.01995262314968879,0,0.38399069600018265
114,678,200,0.056759412914348856,0.025118864315095794,1,0.47980516299867304
114,679,400,0.11351882582869771,0.01995262314968879,1,0.5448316350011737
114,680,400,0.11351882582869771,0.015848931924611127,0,0.45754678800039983
114,681,000,0,0.039810717055349706,1,0.30608895600016695
114,682,200,0.056759412914348856,0.01995262314968879,0,0.3474870239988377
114,683,800,0.22703765165739542,0.025118864315095794,0,0.3567787859992677
114,684,100_null,0.028379706457174428,0.02511886431509579,0,0.6058284230002755
114,685,200,0.056759412914348856,0.025118864315095794,1,0.5035868539998773
114,686,100,0.028379706457174428,0.02511886431509579,1,0.38100670100175194
114,687,000,0,0.03162277660168378,1,0.4943705250007042
114,688,800,0.22703765165739542,0.031622776601683784,1,0.4916515459990478
114,689,400,0.11351882582869771,0.01995262314968879,0,0.5883420930003922
114,690,000,0,0.025118864315095787,0,0.548368355999628
114,691,100,0.028379706457174428,0.01995262314968879,0,0.5472107629993843
114,692,200,0.056759412914348856,0.01995262314968879,1,0.5882277489999979
114,693,800,0.22703765165739542,0.02511886431509579,1,1.0600529899984394
114,694,400,0.11351882582869771,0.025118864315095794,0,0.7175578759997734
114,695,200,0.056759412914348856,0.015848931924611127,1,0.6533442609998019
114,696,000_null,0,0.03162277660168378,0,0.7028084249996027
114,697,800,0.22703765165739542,0.01995262314968879,0,0.9352108399998542
114,698,100,0.028379706457174428,0.025118864315095794,1,0.6797410190010851
114,699,400,0.11351882582869771,0.031622776601683784,1,0.40866638000079547
114,700,000,0,0.03162277660168378,0,0.5462908839999727
114,701,400,0.11351882582869771,0.02511886431509579,0,0.5124395370003185
114,702,200,0.056759412914348856,0.012589254117941666,0,0.5683404799983691
114,703,100,0.028379706457174428,0.01995262314968879,0,0.5623311920007836
114,704,800,0.22703765165739542,0.025118864315095794,0,0.6712455730012152
114,705,400,0.11351882582869771,0.031622776601683784,1,0.48015093700087164
114,706,100,0.028379706457174428,0.025118864315095794,1,0.918428095001218
114,707,200,0.056759412914348856,0.015848931924611127,0,0.8554685649996827
114,708,000,0,0.039810717055349706,1,0.5678458689999388
114,709,800,0.22703765165739542,0.031622776601683784,1,0.592809629999465
114,710,400,0.11351882582869771,0.02511886431509579,1,0.6644795170013822
114,711,800,0.22703765165739542,0.02511886431509579,0,0.5943461759998172
114,712,200,0.056759412914348856,0.01995262314968879,0,0.546217061999414
114,713,000,0,0.03162277660168378,1,0.7875405869999668
114,714,100,0.028379706457174428,0.01995262314968879,0,0.7488541309994616
114,715,200,0.056759412914348856,0.025118864315095794,1,0.6788297630009765
114,716,100,0.028379706457174428,0.025118864315095794,0,0.4127428190004139
114,717,400,0.11351882582869771,0.01995262314968879,1,0.5170643269993889
114,718,000,0,0.025118864315095787,0,0.45400427899949136
114,719,800_null,0.22703765165739542,0.031622776601683784,0,0.6765087599997059
114,720,800,0.22703765165739542,0.031622776601683784,0,0.47924266699919826
114,721,200,0.056759412914348856,0.01995262314968879,0,0.28554035399974964
114,722,400_null,0.11351882582869771,0.015848931924611127,0,0.21443480199923215
114,723,000,0,0.03162277660168378,0,0.19668772100158094
114,724,100,0.028379706457174428,0.031622776601683784,1,0.5339478160003637
114,725,800,0.22703765165739542,0.03981071705534971,1,0.3820051999991847
114,726,200,0.056759412914348856,0.025118864315095794,0,0.33483515700027056
114,727,400,0.11351882582869771,0.015848931924611127,1,0.24703182899975218
114,728,000_null,0,0.039810717055349706,0,0.3604914589996042
114,729,100,0.028379706457174428,0.02511886431509579,0,0.31255085299926577
114,730,100,0.028379706457174428,0.031622776601683784,0,0.29189548599970294
114,731,800,0.22703765165739542,0.031622776601683784,0,0.4179476549998071
114,732,000,0,0.039810717055349706,0,0.38002392099951976
114,733,400,0.11351882582869771,0.012589254117941666,0,0.5371304569998756
114,734,200,0.056759412914348856,0.031622776601683784,1,0.410032741001487
114,735,800,0.22703765165739542,0.03981071705534971,1,0.33056151200071326
114,736,200,0.056759412914348856,0.02511886431509579,1,0.32059947600100713
114,737,400,0.11351882582869771,0.015848931924611127,0,0.416965854999944
114,738,100,0.028379706457174428,0.03981071705534971,1,0.4639378850006324
114,739,000,0,0.050118723362727206,1,0.49715830000059213
114,740,100,0.028379706457174428,0.031622776601683784,1,0.30546072099969024
114,741,200,0.056759412914348856,0.01995262314968879,1,0.41060870600085764
114,742,800,0.22703765165739542,0.031622776601683784,1,0.37839698800053156
114,743,000,0,0.039810717055349706,1,0.3418503269986104
114,744,400,0.11351882582869771,0.01995262314968879,0,0.47064582200073346
114,745,200,0.056759412914348856,0.015848931924611127,1,0.488681999999244
114,746,400,0.11351882582869771,0.025118864315095794,1,0.4488386229986645
114,747,000_null,0,0.03162277660168378,0,0.4585420029998204
114,748,800,0.22703765165739542,0.02511886431509579,1,0.3595455070008029
114,749,100,0.028379706457174428,0.02511886431509579,0,0.6326675899999827
114,750,200,0.056759412914348856,0.012589254117941666,0,0.4010330849996535
114,751,000,0,0.03162277660168378,1,0.40646612099953927
114,752,400,0.11351882582869771,0.01995262314968879,0,0.5512812960005249
114,753,800,0.22703765165739542,0.01995262314968879,0,0.5435436780007876
114,754,100,0.028379706457174428,0.031622776601683784,1,0.5831736639993323
114,755,000,0,0.025118864315095787,1,0.528930300999491
114,756,400,0.11351882582869771,0.025118864315095794,1,0.6327701680002065
114,757,100,0.028379706457174428,0.02511886431509579,1,0.554305812000166
114,758,800,0.22703765165739542,0.025118864315095794,1,0.484268300999247
114,759,200,0.056759412914348856,0.015848931924611127,0,0.5177125329992123
114,760,000,0,0.019952623149688785,0,0.7278182069985633
114,761,200,0.056759412914348856,0.01995262314968879,0,0.5677986160008004
114,762,400,0.11351882582869771,0.01995262314968879,0,0.5198267029991257
114,763,800,0.22703765165739542,0.01995262314968879,0,0.5690498710009706
114,764,100,0.028379706457174428,0.01995262314968879,0,0.6390831520002394
114,765,200,0.056759412914348856,0.025118864315095794,0,0.623425779000172
114,766,100,0.028379706457174428,0.025118864315095794,1,0.5574543789989548
114,767,800,0.22703765165739542,0.025118864315095794,1,0.38953573599974334
114,768,400,0.11351882582869771,0.025118864315095794,1,0.3426718599985179
114,769,000,0,0.025118864315095787,1,0.7180441840009735
114,770,200,0.056759412914348856,0.031622776601683784,1,0.5588363629995001
114,771,100,0.028379706457174428,0.01995262314968879,0,0.5670567460001621
114,772,800_null,0.22703765165739542,0.01995262314968879,0,0.3123676439990959
114,773,400,0.11351882582869771,0.01995262314968879,0,0.24885729099878517
114,774,000,0,0.019952623149688785,0,0.2760385120000137
114,775,000,0,0.025118864315095787,0,0.348786573000325
114,776,200,0.056759412914348856,0.02511886431509579,1,0.39522670499900414
114,777,100,0.028379706457174428,0.025118864315095794,1,0.37969708799937507
114,778,800,0.22703765165739542,0.01995262314968879,1,0.47043826000117406
114,779,400_null,0.11351882582869771,0.025118864315095794,0,0.46655922799982363
114,780,200,0.056759412914348856,0.01995262314968879,0,0.7548201619993051
114,781,800,0.22703765165739542,0.015848931924611127,0,0.48079717200016603
114,782,400,0.11351882582869771,0.025118864315095794,1,0.514310114998807
114,783,000,0,0.03162277660168378,1,0.39467863900063094
114,784,100,0.028379706457174428,0.01995262314968879,0,0.666032395000002
114,785,000,0,0.025118864315095787,1,0.45767389200045727
114,786,800,0.22703765165739542,0.01995262314968879,0,0.634959576998881
114,787,400_null,0.11351882582869771,0.01995262314968879,0,0.5309213420005108
114,788,200,0.056759412914348856,0.025118864315095794,0,0.4040173270004743
114,789,100,0.028379706457174428,0.025118864315095794,1,0.6785011520005355
114,790,400,0.11351882582869771,0.01995262314968879,0,1.0312516260000848
114,791,200,0.056759412914348856,0.031622776601683784,1,0.5254895289999695
114,792,000_null,0,0.019952623149688785,0,0.6225299939997058
114,793,800,0.22703765165739542,0.025118864315095794,0,0.7024788620001345
114,794,100,0.028379706457174428,0.01995262314968879,0,0.6931546440009697
114,795,000,0,0.019952623149688785,0,0.5502691919991776
114,796,400,0.11351882582869771,0.025118864315095794,0,0.46003718199972354
114,797,800,0.22703765165739542,0.031622776601683784,1,0.4125415399994381
114,798,100_null,0.028379706457174428,0.025118864315095794,0,0.4203075369987346
114,799,200,0.056759412914348856,0.02511886431509579,1,0.47691778000080376
114,800,800,0.22703765165739542,0.02511886431509579,0,0.4778636529990763
114,801,000,0,0.025118864315095787,0,0.7262731749997329
114,802,200,0.056759412914348856,0.01995262314968879,0,0.655480774001262
114,803,100,0.028379706457174428,0.025118864315095794,0,0.6314402299994981
114,804,400,0.11351882582869771,0.031622776601683784,1,0.3936233509994054
114,805,200,0.056759412914348856,0.025118864315095794,1,0.29029958699902636
114,806,100,0.028379706457174428,0.031622776601683784,1,0.33860943100080476
114,807,800,0.22703765165739542,0.031622776601683784,1,0.42679105500064907
114,808,000,0,0.03162277660168378,1,0.2839652220009157
114,809,400_null,0.11351882582869771,0.02511886431509579,0,0.36956661799922585
114,810,100,0.028379706457174428,0.02511886431509579,1,1.010652900000423
114,811,000_null,0,0.025118864315095787,0,0.587018910999177
114,812,200,0.056759412914348856,0.01995262314968879,0,0.5049565749995963
114,813,800,0.22703765165739542,0.02511886431509579,0,0.7774298260010255
114,814,400,0.11351882582869771,0.02511886431509579,0,0.6182109009987471
114,815,000,0,0.025118864315095787,0,0.6179004780005926
114,816,200,0.056759412914348856,0.025118864315095794,1,0.5873206000014761
114,817,800_null,0.22703765165739542,0.031622776601683784,0,0.4756605309994484
114,818,400,0.11351882582869771,0.031622776601683784,0,0.6997939930006396
114,819,100,0.028379706457174428,0.01995262314968879,0,0.7903695879995212
114,820,800,0.22703765165739542,0.031622776601683784,1,0.5832288750007137
114,821,100_null,0.028379706457174428,0.025118864315095794,0,0.5129659619997256
114,822,000,0,0.03162277660168378,1,0.4313785989997996
114,823,400,0.11351882582869771,0.03981071705534971,1,0.3996753270002955
114,824,200,0.056759412914348856,0.01995262314968879,1,0.3574746909998794
114,825,000,0,0.025118864315095787,1,0.7107582640001056
114,826,800,0.22703765165739542,0.02511886431509579,0,0.3756048760005797
114,827,400,0.11351882582869771,0.031622776601683784,1,0.46097592700061796
114,828,100,0.028379706457174428,0.025118864315095794,1,0.7494342859990866
114,829,200,0.056759412914348856,0.015848931924611127,0,0.502838073998646
114,830,000,0,0.019952623149688785,1,1.1267640719997871
114,831,400,0.11351882582869771,0.02511886431509579,1,0.8637434459997166
114,832,800,0.22703765165739542,0.031622776601683784,0,0.45611940099843196
114,833,100,0.028379706457174428,0.01995262314968879,0,0.6811363289998553
114,834,200,0.056759412914348856,0.01995262314968879,0,0.6501954420000402
114,835,400,0.11351882582869771,0.01995262314968879,0,0.6356032929998037
114,836,200,0.056759412914348856,0.025118864315095794,0,0.7097891090015764
114,837,000,0,0.015848931924611124,0,0.819803401000172
114,838,800,0.22703765165739542,0.03981071705534971,1,0.4770620070012228
114,839,100,0.028379706457174428,0.025118864315095794,1,0.5540563670001575
