id,trial,label,FC,TC,response,RT
19,0,800,0.18209612581894707,0.1,0,99
19,1,000,0,0.1,0,99
19,2,200,0.04552403145473677,0.1,0,99
19,3,400,0.09104806290947354,0.1,0,99
19,4,100,0.022762015727368384,0.1,0,99
19,5,400_null,0.09104806290947354,0.1,0,99
19,6,200,0.04552403145473677,0.1,0,99
19,7,100,0.022762015727368384,0.1,0,99
19,8,000,0,0.1,0,99
19,9,800,0.18209612581894707,0.1,0,99
19,10,000,0,0.1,0,99
19,11,800,0.18209612581894707,0.1,0,99
19,12,100,0.022762015727368384,0.1,0,99
19,13,400,0.09104806290947354,0.1,0,99
19,14,200,0.04552403145473677,0.1,0,99
19,15,200,0.04552403145473677,0.1,0,99
19,16,100,0.022762015727368384,0.1,0,99
19,17,800,0.18209612581894707,0.1,0,99
19,18,000,0,0.1,0,99
19,19,400,0.09104806290947354,0.1,0,99
19,20,100,0.022762015727368384,0.1,0,99
19,21,200,0.04552403145473677,0.1,0,99
19,22,000,0,0.1,0,99
19,23,400,0.09104806290947354,0.1,0,99
19,24,800,0.18209612581894707,0.1,0,99
19,25,000,0,0.1,0,99
19,26,100,0.022762015727368384,0.1,0,99
19,27,200,0.04552403145473677,0.1,0,99
19,28,800,0.18209612581894707,0.1,0,99
19,29,400,0.09104806290947354,0.1,0,99
19,30,400,0.09104806290947354,0.1,0,99
19,31,000,0,0.1,0,99
19,32,200,0.04552403145473677,0.1,0,99
19,33,100,0.022762015727368384,0.1,0,99
19,34,800_null,0.18209612581894707,0.1,0,99
19,35,200,0.04552403145473677,0.1,0,99
19,36,100,0.022762015727368384,0.1,0,99
19,37,800,0.18209612581894707,0.1,0,99
19,38,400_null,0.09104806290947354,0.1,0,99
19,39,000,0,0.1,0,99
19,40,800,0.18209612581894707,0.1,0,99
19,41,100_null,0.022762015727368384,0.1,0,99
19,42,000_null,0,0.1,0,99
19,43,200,0.04552403145473677,0.1,0,99
19,44,400,0.09104806290947354,0.1,0,99
19,45,100,0.022762015727368384,0.1,0,99
19,46,200,0.04552403145473677,0.1,0,99
19,47,000,0,0.1,0,99
19,48,800,0.18209612581894707,0.1,0,99
19,49,400,0.09104806290947354,0.1,0,99
19,50,000,0,0.1,0,99
19,51,800,0.18209612581894707,0.1,0,99
19,52,200,0.04552403145473677,0.1,0,99
19,53,100,0.022762015727368384,0.1,0,99
19,54,400,0.09104806290947354,0.1,0,99
19,55,000,0,0.1,0,99
19,56,400,0.09104806290947354,0.1,0,99
19,57,200,0.04552403145473677,0.1,0,99
19,58,800,0.18209612581894707,0.1,0,99
19,59,100,0.022762015727368384,0.1,0,99
19,60,800,0.18209612581894707,0.1,0,99
19,61,400,0.09104806290947354,0.1,0,99
19,62,000,0,0.1,0,99
19,63,200,0.04552403145473677,0.1,0,99
19,64,100,0.022762015727368384,0.1,0,99
19,65,200,0.04552403145473677,0.1,0,99
19,66,800,0.18209612581894707,0.1,0,99
19,67,000,0,0.1,0,99
19,68,100,0.022762015727368384,0.1,0,99
19,69,400,0.09104806290947354,0.1,0,99
19,70,200,0.04552403145473677,0.1,0,99
19,71,000,0,0.1,0,99
19,72,800,0.18209612581894707,0.1,0,99
19,73,400,0.09104806290947354,0.1,0,99
19,74,100,0.022762015727368384,0.1,0,99
19,75,400,0.09104806290947354,0.1,0,99
19,76,000,0,0.1,0,99
19,77,200,0.04552403145473677,0.1,0,99
19,78,800,0.18209612581894707,0.1,0,99
19,79,100,0.022762015727368384,0.1,0,99
19,80,200,0.04552403145473677,0.1,0,99
19,81,000,0,0.1,0,99
19,82,400_null,0.09104806290947354,0.1,0,99
19,83,800,0.18209612581894707,0.1,0,99
19,84,100_null,0.022762015727368384,0.1,0,99
19,85,800_null,0.18209612581894707,0.1,0,99
19,86,100,0.022762015727368384,0.1,0,99
19,87,000,0,0.1,0,99
19,88,400,0.09104806290947354,0.1,0,99
19,89,200,0.04552403145473677,0.1,0,99
19,90,200,0.04552403145473677,0.1,0,99
19,91,400_null,0.09104806290947354,0.1,0,99
19,92,800,0.18209612581894707,0.1,0,99
19,93,100,0.022762015727368384,0.1,0,99
19,94,000,0,0.1,0,99
19,95,100,0.022762015727368384,0.1,0,99
19,96,000,0,0.1,0,99
19,97,800,0.18209612581894707,0.1,0,99
19,98,200,0.04552403145473677,0.1,0,99
19,99,400_null,0.09104806290947354,0.1,0,99
19,100,800,0.18209612581894707,0.1,0,99
19,101,100,0.022762015727368384,0.1,0,99
19,102,000,0,0.1,0,99
19,103,200,0.04552403145473677,0.1,0,99
19,104,400,0.09104806290947354,0.1,0,99
19,105,100,0.022762015727368384,0.1,0,99
19,106,200,0.04552403145473677,0.1,0,99
19,107,400,0.09104806290947354,0.1,0,99
19,108,000,0,0.1,0,99
19,109,800,0.18209612581894707,0.1,0,99
19,110,800,0.18209612581894707,0.1,0,99
19,111,100,0.022762015727368384,0.1,0,99
19,112,000,0,0.1,0,99
19,113,400,0.09104806290947354,0.1,0,99
19,114,200,0.04552403145473677,0.1,0,99
19,115,100,0.022762015727368384,0.1,0,99
19,116,000_null,0,0.1,0,99
19,117,800,0.18209612581894707,0.1,0,99
19,118,200,0.04552403145473677,0.1,0,99
19,119,400,0.09104806290947354,0.1,0,99
19,120,200,0.04552403145473677,0.1,0,99
19,121,000,0,0.1,0,99
19,122,100,0.022762015727368384,0.1,0,99
19,123,800,0.18209612581894707,0.1,0,99
19,124,400,0.09104806290947354,0.1,0,99
19,125,000,0,0.1,0,99
19,126,800,0.18209612581894707,0.1,0,99
19,127,400,0.09104806290947354,0.1,0,99
19,128,100,0.022762015727368384,0.1,0,99
19,129,200,0.04552403145473677,0.1,0,99
19,130,800,0.18209612581894707,0.1,0,99
19,131,200,0.04552403145473677,0.1,0,99
19,132,400,0.09104806290947354,0.1,0,99
19,133,100,0.022762015727368384,0.1,0,99
19,134,000,0,0.1,0,99
19,135,800,0.18209612581894707,0.1,0,99
19,136,400,0.09104806290947354,0.1,0,99
19,137,200,0.04552403145473677,0.1,0,99
19,138,100,0.022762015727368384,0.1,0,99
19,139,000,0,0.1,0,99
19,140,000,0,0.1,0,99
19,141,200,0.04552403145473677,0.1,0,99
19,142,800,0.18209612581894707,0.1,0,99
19,143,400,0.09104806290947354,0.1,0,99
19,144,100,0.022762015727368384,0.1,0,99
19,145,400,0.09104806290947354,0.1,0,99
19,146,000,0,0.1,0,99
19,147,100_null,0.022762015727368384,0.1,0,99
19,148,800,0.18209612581894707,0.1,0,99
19,149,200,0.04552403145473677,0.1,0,99
19,150,800,0.18209612581894707,0.1,0,99
19,151,200,0.04552403145473677,0.1,0,99
19,152,400,0.09104806290947354,0.1,0,99
19,153,100,0.022762015727368384,0.1,0,99
19,154,000,0,0.1,0,99
19,155,100,0.022762015727368384,0.1,0,99
19,156,200,0.04552403145473677,0.1,0,99
19,157,800_null,0.18209612581894707,0.1,0,99
19,158,000,0,0.1,0,99
19,159,400,0.09104806290947354,0.1,0,99
19,160,400,0.09104806290947354,0.1,0,99
19,161,100,0.022762015727368384,0.1,0,99
19,162,000,0,0.1,0,99
19,163,800,0.18209612581894707,0.1,0,99
19,164,200,0.04552403145473677,0.1,0,99
19,165,200,0.04552403145473677,0.1,0,99
19,166,000,0,0.1,0,99
19,167,100,0.022762015727368384,0.1,0,99
19,168,800,0.18209612581894707,0.1,0,99
19,169,400,0.09104806290947354,0.1,0,99
19,170,800,0.18209612581894707,0.1,0,99
19,171,200,0.04552403145473677,0.1,0,99
19,172,400,0.09104806290947354,0.1,0,99
19,173,100,0.022762015727368384,0.1,0,99
19,174,000,0,0.1,0,99
19,175,200,0.04552403145473677,0.1,0,99
19,176,000,0,0.1,0,99
19,177,800,0.18209612581894707,0.1,0,99
19,178,400,0.09104806290947354,0.1,0,99
19,179,100,0.022762015727368384,0.1,0,99
19,180,800,0.18209612581894707,0.1,0,99
19,181,100,0.022762015727368384,0.1,0,99
19,182,000,0,0.1,0,99
19,183,400_null,0.09104806290947354,0.1,0,99
19,184,200,0.04552403145473677,0.1,0,99
19,185,800,0.18209612581894707,0.1,0,99
19,186,100,0.022762015727368384,0.1,0,99
19,187,000,0,0.1,0,99
19,188,400,0.09104806290947354,0.1,0,99
19,189,200,0.04552403145473677,0.1,0,99
19,190,000_null,0,0.1,0,99
19,191,100,0.022762015727368384,0.1,0,99
19,192,800,0.18209612581894707,0.1,0,99
19,193,400,0.09104806290947354,0.1,0,99
19,194,200,0.04552403145473677,0.1,0,99
19,195,800,0.18209612581894707,0.1,0,99
19,196,200,0.04552403145473677,0.1,0,99
19,197,100_null,0.022762015727368384,0.1,0,99
19,198,400,0.09104806290947354,0.1,0,99
19,199,000,0,0.1,0,99
19,200,000,0,0.1,0,99
19,201,100,0.022762015727368384,0.1,0,99
19,202,400,0.09104806290947354,0.1,0,99
19,203,800,0.18209612581894707,0.1,0,99
19,204,200,0.04552403145473677,0.1,0,99
19,205,200,0.04552403145473677,0.1,0,99
19,206,400,0.09104806290947354,0.1,0,99
19,207,800,0.18209612581894707,0.1,0,99
19,208,000,0,0.1,0,99
19,209,100,0.022762015727368384,0.1,0,99
19,210,100,0.022762015727368384,0.1,0,99
19,211,800,0.18209612581894707,0.1,0,99
19,212,400,0.09104806290947354,0.1,0,99
19,213,000,0,0.1,0,99
19,214,200,0.04552403145473677,0.1,0,99
19,215,200,0.04552403145473677,0.1,0,99
19,216,800,0.18209612581894707,0.1,0,99
19,217,400,0.09104806290947354,0.1,0,99
19,218,100,0.022762015727368384,0.1,0,99
19,219,000,0,0.1,0,99
19,220,400,0.09104806290947354,0.1,0,99
19,221,100,0.022762015727368384,0.1,0,99
19,222,200,0.04552403145473677,0.1,0,99
19,223,800,0.18209612581894707,0.1,0,99
19,224,000,0,0.1,0,99
19,225,800,0.18209612581894707,0.1,0,99
19,226,400,0.09104806290947354,0.1,0,99
19,227,000_null,0,0.1,0,99
19,228,100,0.022762015727368384,0.1,0,99
19,229,200,0.04552403145473677,0.1,0,99
19,230,100,0.022762015727368384,0.1,0,99
19,231,400,0.09104806290947354,0.1,0,99
19,232,800,0.18209612581894707,0.1,0,99
19,233,000,0,0.1,0,99
19,234,200,0.04552403145473677,0.1,0,99
19,235,200,0.04552403145473677,0.1,0,99
19,236,800,0.18209612581894707,0.1,0,99
19,237,100,0.022762015727368384,0.1,0,99
19,238,400,0.09104806290947354,0.1,0,99
19,239,000,0,0.1,0,99
19,240,200_null,0.04552403145473677,0.1,0,99
19,241,000,0,0.1,0,99
19,242,400,0.09104806290947354,0.1,0,99
19,243,800,0.18209612581894707,0.1,0,99
19,244,100_null,0.022762015727368384,0.1,0,99
19,245,400,0.09104806290947354,0.1,0,99
19,246,100,0.022762015727368384,0.1,0,99
19,247,200,0.04552403145473677,0.1,0,99
19,248,800,0.18209612581894707,0.1,0,99
19,249,000,0,0.1,0,99
19,250,400,0.09104806290947354,0.1,0,99
19,251,100,0.022762015727368384,0.1,0,99
19,252,800,0.18209612581894707,0.1,0,99
19,253,000_null,0,0.1,0,99
19,254,200,0.04552403145473677,0.1,0,99
19,255,800,0.18209612581894707,0.1,0,99
19,256,100,0.022762015727368384,0.1,0,99
19,257,000,0,0.1,0,99
19,258,400,0.09104806290947354,0.1,0,99
19,259,200,0.04552403145473677,0.1,0,99
19,260,000,0,0.1,0,99
19,261,400,0.09104806290947354,0.1,0,99
19,262,100,0.022762015727368384,0.1,0,99
19,263,800,0.18209612581894707,0.1,0,99
19,264,200,0.04552403145473677,0.1,0,99
19,265,800,0.18209612581894707,0.1,0,99
19,266,200,0.04552403145473677,0.1,0,99
19,267,000,0,0.1,0,99
19,268,100,0.022762015727368384,0.1,0,99
19,269,400,0.09104806290947354,0.1,0,99
19,270,100,0.022762015727368384,0.1,0,99
19,271,000,0,0.1,0,99
19,272,400,0.09104806290947354,0.1,0,99
19,273,200,0.04552403145473677,0.1,0,99
19,274,800,0.18209612581894707,0.1,0,99
19,275,000_null,0,0.1,0,99
19,276,100,0.022762015727368384,0.1,0,99
19,277,400,0.09104806290947354,0.1,0,99
19,278,200,0.04552403145473677,0.1,0,99
19,279,800,0.18209612581894707,0.1,0,99
19,280,000,0,0.1,0,99
19,281,400,0.09104806290947354,0.1,0,99
19,282,200,0.04552403145473677,0.1,0,99
19,283,800,0.18209612581894707,0.1,0,99
19,284,100,0.022762015727368384,0.1,0,99
19,285,100,0.022762015727368384,0.1,0,99
19,286,000,0,0.1,0,99
19,287,800_null,0.18209612581894707,0.1,0,99
19,288,400,0.09104806290947354,0.1,0,99
19,289,200,0.04552403145473677,0.1,0,99
19,290,100_null,0.022762015727368384,0.1,0,99
19,291,400,0.09104806290947354,0.1,0,99
19,292,200,0.04552403145473677,0.1,0,99
19,293,000,0,0.1,0,99
19,294,800,0.18209612581894707,0.1,0,99
19,295,400,0.09104806290947354,0.1,0,99
19,296,100,0.022762015727368384,0.1,0,99
19,297,000,0,0.1,0,99
19,298,200,0.04552403145473677,0.1,0,99
19,299,800,0.18209612581894707,0.1,0,99
19,300,400,0.09104806290947354,0.1,0,99
19,301,100,0.022762015727368384,0.1,0,99
19,302,200,0.04552403145473677,0.1,0,99
19,303,000,0,0.1,0,99
19,304,800,0.18209612581894707,0.1,0,99
19,305,200,0.04552403145473677,0.1,0,99
19,306,400,0.09104806290947354,0.1,0,99
19,307,800,0.18209612581894707,0.1,0,99
19,308,100,0.022762015727368384,0.1,0,99
19,309,000,0,0.1,0,99
19,310,000,0,0.1,0,99
19,311,800,0.18209612581894707,0.1,0,99
19,312,200_null,0.04552403145473677,0.1,0,99
19,313,400,0.09104806290947354,0.1,0,99
19,314,100,0.022762015727368384,0.1,0,99
19,315,800,0.18209612581894707,0.1,0,99
19,316,200,0.04552403145473677,0.1,0,99
19,317,100,0.022762015727368384,0.1,0,99
19,318,400,0.09104806290947354,0.1,0,99
19,319,000,0,0.1,0,99
19,320,800,0.18209612581894707,0.1,0,99
19,321,100,0.022762015727368384,0.1,0,99
19,322,400,0.09104806290947354,0.1,0,99
19,323,000,0,0.1,0,99
19,324,200,0.04552403145473677,0.1,0,99
19,325,000,0,0.1,0,99
19,326,400,0.09104806290947354,0.1,0,99
19,327,100,0.022762015727368384,0.1,0,99
19,328,200,0.04552403145473677,0.1,0,99
19,329,800,0.18209612581894707,0.1,0,99
19,330,100,0.022762015727368384,0.1,0,99
19,331,200,0.04552403145473677,0.1,0,99
19,332,000_null,0,0.1,0,99
19,333,800,0.18209612581894707,0.1,0,99
19,334,400,0.09104806290947354,0.1,0,99
19,335,000_null,0,0.1,0,99
19,336,400,0.09104806290947354,0.1,0,99
19,337,100,0.022762015727368384,0.1,0,99
19,338,800,0.18209612581894707,0.1,0,99
19,339,200,0.04552403145473677,0.1,0,99
19,340,400,0.09104806290947354,0.1,0,99
19,341,800,0.18209612581894707,0.1,0,99
19,342,000,0,0.1,0,99
19,343,200,0.04552403145473677,0.1,0,99
19,344,100,0.022762015727368384,0.1,0,99
19,345,000_null,0,0.1,0,99
19,346,100,0.022762015727368384,0.1,0,99
19,347,400,0.09104806290947354,0.1,0,99
19,348,800,0.18209612581894707,0.1,0,99
19,349,200,0.04552403145473677,0.1,0,99
19,350,400,0.09104806290947354,0.1,0,99
19,351,000,0,0.1,0,99
19,352,200,0.04552403145473677,0.1,0,99
19,353,100,0.022762015727368384,0.1,0,99
19,354,800_null,0.18209612581894707,0.1,0,99
19,355,000,0,0.1,0,99
19,356,800_null,0.18209612581894707,0.1,0,99
19,357,100,0.022762015727368384,0.1,0,99
19,358,200,0.04552403145473677,0.1,0,99
19,359,400,0.09104806290947354,0.1,0,99
19,360,100,0.022762015727368384,0.1,0,99
19,361,800,0.18209612581894707,0.1,0,99
19,362,200,0.04552403145473677,0.1,0,99
19,363,000,0,0.1,0,99
19,364,400,0.09104806290947354,0.1,0,99
19,365,200,0.04552403145473677,0.1,0,99
19,366,400,0.09104806290947354,0.1,0,99
19,367,000,0,0.1,0,99
19,368,100,0.022762015727368384,0.1,0,99
19,369,800,0.18209612581894707,0.1,0,99
19,370,400,0.09104806290947354,0.1,0,99
19,371,800,0.18209612581894707,0.1,0,99
19,372,200,0.04552403145473677,0.1,0,99
19,373,100,0.022762015727368384,0.1,0,99
19,374,000,0,0.1,0,99
19,375,200,0.04552403145473677,0.1,0,99
19,376,000,0,0.1,0,99
19,377,100,0.022762015727368384,0.1,0,99
19,378,400,0.09104806290947354,0.1,0,99
19,379,800,0.18209612581894707,0.1,0,99
19,380,100,0.022762015727368384,0.1,0,99
19,381,400,0.09104806290947354,0.1,0,99
19,382,200,0.04552403145473677,0.1,0,99
19,383,800,0.18209612581894707,0.1,0,99
19,384,000,0,0.1,0,99
19,385,400,0.09104806290947354,0.1,0,99
19,386,000,0,0.1,0,99
19,387,100,0.022762015727368384,0.1,0,99
19,388,800,0.18209612581894707,0.1,0,99
19,389,200,0.04552403145473677,0.1,0,99
19,390,200,0.04552403145473677,0.1,0,99
19,391,800,0.18209612581894707,0.1,0,99
19,392,000,0,0.1,0,99
19,393,400,0.09104806290947354,0.1,0,99
19,394,100,0.022762015727368384,0.1,0,99
19,395,200,0.04552403145473677,0.1,0,99
19,396,000_null,0,0.1,0,99
19,397,800,0.18209612581894707,0.1,0,99
19,398,400,0.09104806290947354,0.1,0,99
19,399,100,0.022762015727368384,0.1,0,99
19,400,800_null,0.18209612581894707,0.1,0,99
19,401,000_null,0,0.1,0,99
19,402,200,0.04552403145473677,0.1,0,99
19,403,400,0.09104806290947354,0.1,0,99
19,404,100,0.022762015727368384,0.1,0,99
19,405,400,0.09104806290947354,0.1,0,99
19,406,100,0.022762015727368384,0.1,0,99
19,407,200,0.04552403145473677,0.1,0,99
19,408,800,0.18209612581894707,0.1,0,99
19,409,000,0,0.1,0,99
19,410,100,0.022762015727368384,0.1,0,99
19,411,400_null,0.09104806290947354,0.1,0,99
19,412,200,0.04552403145473677,0.1,0,99
19,413,000,0,0.1,0,99
19,414,800,0.18209612581894707,0.1,0,99
19,415,000,0,0.1,0,99
19,416,800,0.18209612581894707,0.1,0,99
19,417,100,0.022762015727368384,0.1,0,99
19,418,200,0.04552403145473677,0.1,0,99
19,419,400,0.09104806290947354,0.1,0,99
19,420,000,0,0.1,0,99
19,421,100,0.022762015727368384,0.1,0,99
19,422,800,0.18209612581894707,0.1,0,99
19,423,200,0.04552403145473677,0.1,0,99
19,424,400_null,0.09104806290947354,0.1,0,99
19,425,200,0.04552403145473677,0.1,0,99
19,426,400,0.09104806290947354,0.1,0,99
19,427,000,0,0.1,0,99
19,428,800,0.18209612581894707,0.1,0,99
19,429,100,0.022762015727368384,0.1,0,99
19,430,400,0.09104806290947354,0.1,0,99
19,431,100,0.022762015727368384,0.1,0,99
19,432,200,0.04552403145473677,0.1,0,99
19,433,000,0,0.1,0,99
19,434,800,0.18209612581894707,0.1,0,99
19,435,200,0.04552403145473677,0.1,0,99
19,436,800,0.18209612581894707,0.1,0,99
19,437,400,0.09104806290947354,0.1,0,99
19,438,100,0.022762015727368384,0.1,0,99
19,439,000,0,0.1,0,99
19,440,800_null,0.18209612581894707,0.1,0,99
19,441,400,0.09104806290947354,0.1,0,99
19,442,200_null,0.04552403145473677,0.1,0,99
19,443,100,0.022762015727368384,0.1,0,99
19,444,000_null,0,0.1,0,99
19,445,800,0.18209612581894707,0.1,0,99
19,446,400,0.09104806290947354,0.1,0,99
19,447,200,0.04552403145473677,0.1,0,99
19,448,100,0.022762015727368384,0.1,0,99
19,449,000,0,0.1,0,99
19,450,100,0.022762015727368384,0.1,0,99
19,451,400,0.09104806290947354,0.1,0,99
19,452,000,0,0.1,0,99
19,453,200,0.04552403145473677,0.1,0,99
19,454,800,0.18209612581894707,0.1,0,99
19,455,800,0.18209612581894707,0.1,0,99
19,456,000,0,0.1,0,99
19,457,400,0.09104806290947354,0.1,0,99
19,458,100,0.022762015727368384,0.1,0,99
19,459,200_null,0.04552403145473677,0.1,0,99
19,460,400,0.09104806290947354,0.1,0,99
19,461,000,0,0.1,0,99
19,462,100,0.022762015727368384,0.1,0,99
19,463,200,0.04552403145473677,0.1,0,99
19,464,800,0.18209612581894707,0.1,0,99
19,465,200,0.04552403145473677,0.1,0,99
19,466,800,0.18209612581894707,0.1,0,99
19,467,000,0,0.1,0,99
19,468,400,0.09104806290947354,0.1,0,99
19,469,100,0.022762015727368384,0.1,0,99
19,470,400,0.09104806290947354,0.1,0,99
19,471,100,0.022762015727368384,0.1,0,99
19,472,000,0,0.1,0,99
19,473,800,0.18209612581894707,0.1,0,99
19,474,200,0.04552403145473677,0.1,0,99
19,475,800,0.18209612581894707,0.1,0,99
19,476,200,0.04552403145473677,0.1,0,99
19,477,100,0.022762015727368384,0.1,0,99
19,478,000,0,0.1,0,99
19,479,400,0.09104806290947354,0.1,0,99
19,480,100_null,0.022762015727368384,0.1,0,99
19,481,400,0.09104806290947354,0.1,0,99
19,482,800_null,0.18209612581894707,0.1,0,99
19,483,000,0,0.1,0,99
19,484,200_null,0.04552403145473677,0.1,0,99
19,485,100_null,0.022762015727368384,0.1,0,99
19,486,200,0.04552403145473677,0.1,0,99
19,487,000,0,0.1,0,99
19,488,800,0.18209612581894707,0.1,0,99
19,489,400,0.09104806290947354,0.1,0,99
19,490,200,0.04552403145473677,0.1,0,99
19,491,100,0.022762015727368384,0.1,0,99
19,492,800,0.18209612581894707,0.1,0,99
19,493,400,0.09104806290947354,0.1,0,99
19,494,000,0,0.1,0,99
19,495,100,0.022762015727368384,0.1,0,99
19,496,800,0.18209612581894707,0.1,0,99
19,497,400,0.09104806290947354,0.1,0,99
19,498,200_null,0.04552403145473677,0.1,0,99
19,499,000,0,0.1,0,99
19,500,000,0,0.1,0,99
19,501,200,0.04552403145473677,0.1,0,99
19,502,800,0.18209612581894707,0.1,0,99
19,503,400,0.09104806290947354,0.1,0,99
19,504,100,0.022762015727368384,0.1,0,99
19,505,100,0.022762015727368384,0.1,0,99
19,506,200,0.04552403145473677,0.1,0,99
19,507,000,0,0.1,0,99
19,508,400,0.09104806290947354,0.1,0,99
19,509,800,0.18209612581894707,0.1,0,99
19,510,800,0.18209612581894707,0.1,0,99
19,511,400,0.09104806290947354,0.1,0,99
19,512,200,0.04552403145473677,0.1,0,99
19,513,100,0.022762015727368384,0.1,0,99
19,514,000,0,0.1,0,99
19,515,400_null,0.09104806290947354,0.1,0,99
19,516,000,0,0.1,0,99
19,517,100,0.022762015727368384,0.1,0,99
19,518,200,0.04552403145473677,0.1,0,99
19,519,800,0.18209612581894707,0.1,0,99
19,520,000,0,0.1,0,99
19,521,800_null,0.18209612581894707,0.1,0,99
19,522,100,0.022762015727368384,0.1,0,99
19,523,400,0.09104806290947354,0.1,0,99
19,524,200,0.04552403145473677,0.1,0,99
19,525,800,0.18209612581894707,0.1,0,99
19,526,000,0,0.1,0,99
19,527,200,0.04552403145473677,0.1,0,99
19,528,100,0.022762015727368384,0.1,0,99
19,529,400,0.09104806290947354,0.1,0,99
19,530,200,0.04552403145473677,0.1,0,99
19,531,800,0.18209612581894707,0.1,0,99
19,532,100,0.022762015727368384,0.1,0,99
19,533,000,0,0.1,0,99
19,534,400,0.09104806290947354,0.1,0,99
19,535,100,0.022762015727368384,0.1,0,99
19,536,800,0.18209612581894707,0.1,0,99
19,537,200,0.04552403145473677,0.1,0,99
19,538,400,0.09104806290947354,0.1,0,99
19,539,000_null,0,0.1,0,99
19,540,100,0.022762015727368384,0.1,0,99
19,541,800,0.18209612581894707,0.1,0,99
19,542,000,0,0.1,0,99
19,543,400,0.09104806290947354,0.1,0,99
19,544,200,0.04552403145473677,0.1,0,99
19,545,400,0.09104806290947354,0.1,0,99
19,546,800,0.18209612581894707,0.1,0,99
19,547,100,0.022762015727368384,0.1,0,99
19,548,000,0,0.1,0,99
19,549,200,0.04552403145473677,0.1,0,99
19,550,800,0.18209612581894707,0.1,0,99
19,551,400,0.09104806290947354,0.1,0,99
19,552,200,0.04552403145473677,0.1,0,99
19,553,100_null,0.022762015727368384,0.1,0,99
19,554,000,0,0.1,0,99
19,555,400,0.09104806290947354,0.1,0,99
19,556,800,0.18209612581894707,0.1,0,99
19,557,200,0.04552403145473677,0.1,0,99
19,558,100,0.022762015727368384,0.1,0,99
19,559,000,0,0.1,0,99
19,560,400,0.09104806290947354,0.1,0,99
19,561,800,0.18209612581894707,0.1,0,99
19,562,000,0,0.1,0,99
19,563,100,0.022762015727368384,0.1,0,99
19,564,200,0.04552403145473677,0.1,0,99
19,565,000,0,0.1,0,99
19,566,200,0.04552403145473677,0.1,0,99
19,567,400,0.09104806290947354,0.1,0,99
19,568,800,0.18209612581894707,0.1,0,99
19,569,100_null,0.022762015727368384,0.1,0,99
19,570,000,0,0.1,0,99
19,571,200,0.04552403145473677,0.1,0,99
19,572,800,0.18209612581894707,0.1,0,99
19,573,100,0.022762015727368384,0.1,0,99
19,574,400,0.09104806290947354,0.1,0,99
19,575,400_null,0.09104806290947354,0.1,0,99
19,576,200,0.04552403145473677,0.1,0,99
19,577,800,0.18209612581894707,0.1,0,99
19,578,000,0,0.1,0,99
19,579,100,0.022762015727368384,0.1,0,99
19,580,200_null,0.04552403145473677,0.1,0,99
19,581,800,0.18209612581894707,0.1,0,99
19,582,000,0,0.1,0,99
19,583,100,0.022762015727368384,0.1,0,99
19,584,400,0.09104806290947354,0.1,0,99
19,585,100_null,0.022762015727368384,0.1,0,99
19,586,000,0,0.1,0,99
19,587,400,0.09104806290947354,0.1,0,99
19,588,800,0.18209612581894707,0.1,0,99
19,589,200,0.04552403145473677,0.1,0,99
19,590,000,0,0.1,0,99
19,591,100,0.022762015727368384,0.1,0,99
19,592,200,0.04552403145473677,0.1,0,99
19,593,400,0.09104806290947354,0.1,0,99
19,594,800,0.18209612581894707,0.1,0,99
19,595,800,0.18209612581894707,0.1,0,99
19,596,000,0,0.1,0,99
19,597,400_null,0.09104806290947354,0.1,0,99
19,598,100,0.022762015727368384,0.1,0,99
19,599,200,0.04552403145473677,0.1,0,99
19,600,800,0.18209612581894707,0.1,0,99
19,601,100,0.022762015727368384,0.1,0,99
19,602,200,0.04552403145473677,0.1,0,99
19,603,400,0.09104806290947354,0.1,0,99
19,604,000,0,0.1,0,99
19,605,200,0.04552403145473677,0.1,0,99
19,606,400,0.09104806290947354,0.1,0,99
19,607,100,0.022762015727368384,0.1,0,99
19,608,800,0.18209612581894707,0.1,0,99
19,609,000,0,0.1,0,99
19,610,200,0.04552403145473677,0.1,0,99
19,611,100,0.022762015727368384,0.1,0,99
19,612,800,0.18209612581894707,0.1,0,99
19,613,000,0,0.1,0,99
19,614,400_null,0.09104806290947354,0.1,0,99
19,615,200,0.04552403145473677,0.1,0,99
19,616,400,0.09104806290947354,0.1,0,99
19,617,100,0.022762015727368384,0.1,0,99
19,618,000,0,0.1,0,99
19,619,800,0.18209612581894707,0.1,0,99
19,620,200,0.04552403145473677,0.1,0,99
19,621,800,0.18209612581894707,0.1,0,99
19,622,100,0.022762015727368384,0.1,0,99
19,623,400,0.09104806290947354,0.1,0,99
19,624,000,0,0.1,0,99
19,625,200,0.04552403145473677,0.1,0,99
19,626,100_null,0.022762015727368384,0.1,0,99
19,627,000,0,0.1,0,99
19,628,400,0.09104806290947354,0.1,0,99
19,629,800,0.18209612581894707,0.1,0,99
19,630,000,0,0.1,0,99
19,631,200,0.04552403145473677,0.1,0,99
19,632,400,0.09104806290947354,0.1,0,99
19,633,100,0.022762015727368384,0.1,0,99
19,634,800,0.18209612581894707,0.1,0,99
19,635,000,0,0.1,0,99
19,636,100_null,0.022762015727368384,0.1,0,99
19,637,800,0.18209612581894707,0.1,0,99
19,638,200,0.04552403145473677,0.1,0,99
19,639,400,0.09104806290947354,0.1,0,99
19,640,100,0.022762015727368384,0.1,0,99
19,641,000,0,0.1,0,99
19,642,400,0.09104806290947354,0.1,0,99
19,643,800,0.18209612581894707,0.1,0,99
19,644,200,0.04552403145473677,0.1,0,99
19,645,000,0,0.1,0,99
19,646,100,0.022762015727368384,0.1,0,99
19,647,200,0.04552403145473677,0.1,0,99
19,648,800_null,0.18209612581894707,0.1,0,99
19,649,400,0.09104806290947354,0.1,0,99
19,650,800,0.18209612581894707,0.1,0,99
19,651,200,0.04552403145473677,0.1,0,99
19,652,100_null,0.022762015727368384,0.1,0,99
19,653,400,0.09104806290947354,0.1,0,99
19,654,000,0,0.1,0,99
19,655,100,0.022762015727368384,0.1,0,99
19,656,000,0,0.1,0,99
19,657,400,0.09104806290947354,0.1,0,99
19,658,800,0.18209612581894707,0.1,0,99
19,659,200,0.04552403145473677,0.1,0,99
19,660,100,0.022762015727368384,0.1,0,99
19,661,800,0.18209612581894707,0.1,0,99
19,662,400,0.09104806290947354,0.1,0,99
19,663,200,0.04552403145473677,0.1,0,99
19,664,000,0,0.1,0,99
19,665,400,0.09104806290947354,0.1,0,99
19,666,100,0.022762015727368384,0.1,0,99
19,667,800,0.18209612581894707,0.1,0,99
19,668,200_null,0.04552403145473677,0.1,0,99
19,669,000,0,0.1,0,99
19,670,000,0,0.1,0,99
19,671,200,0.04552403145473677,0.1,0,99
19,672,400,0.09104806290947354,0.1,0,99
19,673,800_null,0.18209612581894707,0.1,0,99
19,674,100,0.022762015727368384,0.1,0,99
19,675,200,0.04552403145473677,0.1,0,99
19,676,100,0.022762015727368384,0.1,0,99
19,677,800,0.18209612581894707,0.1,0,99
19,678,400,0.09104806290947354,0.1,0,99
19,679,000,0,0.1,0,99
19,680,100,0.022762015727368384,0.1,0,99
19,681,400,0.09104806290947354,0.1,0,99
19,682,000,0,0.1,0,99
19,683,200,0.04552403145473677,0.1,0,99
19,684,800,0.18209612581894707,0.1,0,99
19,685,000,0,0.1,0,99
19,686,100,0.022762015727368384,0.1,0,99
19,687,400,0.09104806290947354,0.1,0,99
19,688,200,0.04552403145473677,0.1,0,99
19,689,800,0.18209612581894707,0.1,0,99
19,690,000,0,0.1,0,99
19,691,200,0.04552403145473677,0.1,0,99
19,692,100,0.022762015727368384,0.1,0,99
19,693,800,0.18209612581894707,0.1,0,99
19,694,400,0.09104806290947354,0.1,0,99
19,695,400,0.09104806290947354,0.1,0,99
19,696,100,0.022762015727368384,0.1,0,99
19,697,200,0.04552403145473677,0.1,0,99
19,698,800,0.18209612581894707,0.1,0,99
19,699,000,0,0.1,0,99
19,700,000,0,0.1,0,99
19,701,200,0.04552403145473677,0.1,0,99
19,702,100,0.022762015727368384,0.1,0,99
19,703,400,0.09104806290947354,0.1,0,99
19,704,800,0.18209612581894707,0.1,0,99
19,705,100,0.022762015727368384,0.1,0,99
19,706,000,0,0.1,0,99
19,707,800_null,0.18209612581894707,0.1,0,99
19,708,200,0.04552403145473677,0.1,0,99
19,709,400,0.09104806290947354,0.1,0,99
19,710,100,0.022762015727368384,0.1,0,99
19,711,800_null,0.18209612581894707,0.1,0,99
19,712,400,0.09104806290947354,0.1,0,99
19,713,000,0,0.1,0,99
19,714,200,0.04552403145473677,0.1,0,99
19,715,100,0.022762015727368384,0.1,0,99
19,716,000,0,0.1,0,99
19,717,800,0.18209612581894707,0.1,0,99
19,718,400,0.09104806290947354,0.1,0,99
19,719,200,0.04552403145473677,0.1,0,99
19,720,800,0.18209612581894707,0.1,0,99
19,721,000,0,0.1,0,99
19,722,200_null,0.04552403145473677,0.1,0,99
19,723,400,0.09104806290947354,0.1,0,99
19,724,100,0.022762015727368384,0.1,0,99
19,725,000,0,0.1,0,99
19,726,100,0.022762015727368384,0.1,0,99
19,727,200,0.04552403145473677,0.1,0,99
19,728,400,0.09104806290947354,0.1,0,99
19,729,800,0.18209612581894707,0.1,0,99
19,730,800,0.18209612581894707,0.1,0,99
19,731,100,0.022762015727368384,0.1,0,99
19,732,000,0,0.1,0,99
19,733,400,0.09104806290947354,0.1,0,99
19,734,200,0.04552403145473677,0.1,0,99
19,735,100,0.022762015727368384,0.1,0,99
19,736,800,0.18209612581894707,0.1,0,99
19,737,400,0.09104806290947354,0.1,0,99
19,738,200,0.04552403145473677,0.1,0,99
19,739,000,0,0.1,0,99
19,740,000_null,0,0.1,0,99
19,741,400_null,0.09104806290947354,0.1,0,99
19,742,800,0.18209612581894707,0.1,0,99
19,743,200,0.04552403145473677,0.1,0,99
19,744,100,0.022762015727368384,0.1,0,99
19,745,800,0.18209612581894707,0.1,0,99
19,746,200,0.04552403145473677,0.1,0,99
19,747,400,0.09104806290947354,0.1,0,99
19,748,100,0.022762015727368384,0.1,0,99
19,749,000,0,0.1,0,99
19,750,400,0.09104806290947354,0.1,0,99
19,751,200,0.04552403145473677,0.1,0,99
19,752,100,0.022762015727368384,0.1,0,99
19,753,000,0,0.1,0,99
19,754,800_null,0.18209612581894707,0.1,0,99
19,755,800_null,0.18209612581894707,0.1,0,99
19,756,200,0.04552403145473677,0.1,0,99
19,757,400,0.09104806290947354,0.1,0,99
19,758,000,0,0.1,0,99
19,759,100,0.022762015727368384,0.1,0,99
19,760,400,0.09104806290947354,0.1,0,99
19,761,000_null,0,0.1,0,99
19,762,200,0.04552403145473677,0.1,0,99
19,763,100,0.022762015727368384,0.1,0,99
19,764,800,0.18209612581894707,0.1,0,99
19,765,400_null,0.09104806290947354,0.1,0,99
19,766,200,0.04552403145473677,0.1,0,99
19,767,100,0.022762015727368384,0.1,0,99
19,768,000,0,0.1,0,99
19,769,800,0.18209612581894707,0.1,0,99
19,770,100,0.022762015727368384,0.1,0,99
19,771,200,0.04552403145473677,0.1,0,99
19,772,000,0,0.1,0,99
19,773,800_null,0.18209612581894707,0.1,0,99
19,774,400,0.09104806290947354,0.1,0,99
19,775,800,0.18209612581894707,0.1,0,99
19,776,100_null,0.022762015727368384,0.1,0,99
19,777,200,0.04552403145473677,0.1,0,99
19,778,000,0,0.1,0,99
19,779,400,0.09104806290947354,0.1,0,99
19,780,400,0.09104806290947354,0.1,0,99
19,781,100,0.022762015727368384,0.1,0,99
19,782,000,0,0.1,0,99
19,783,800,0.18209612581894707,0.1,0,99
19,784,200,0.04552403145473677,0.1,0,99
19,785,400,0.09104806290947354,0.1,0,99
19,786,000,0,0.1,0,99
19,787,200,0.04552403145473677,0.1,0,99
19,788,800,0.18209612581894707,0.1,0,99
19,789,100,0.022762015727368384,0.1,0,99
19,790,800,0.18209612581894707,0.1,0,99
19,791,100_null,0.022762015727368384,0.1,0,99
19,792,200,0.04552403145473677,0.1,0,99
19,793,000,0,0.1,0,99
19,794,400,0.09104806290947354,0.1,0,99
19,795,800,0.18209612581894707,0.1,0,99
19,796,000,0,0.1,0,99
19,797,100,0.022762015727368384,0.1,0,99
19,798,400,0.09104806290947354,0.1,0,99
19,799,200,0.04552403145473677,0.1,0,99
19,800,000,0,0.1,0,99
19,801,100,0.022762015727368384,0.1,0,99
19,802,800,0.18209612581894707,0.1,0,99
19,803,400,0.09104806290947354,0.1,0,99
19,804,200,0.04552403145473677,0.1,0,99
19,805,100_null,0.022762015727368384,0.1,0,99
19,806,400_null,0.09104806290947354,0.1,0,99
19,807,200,0.04552403145473677,0.1,0,99
19,808,800,0.18209612581894707,0.1,0,99
19,809,000,0,0.1,0,99
19,810,800,0.18209612581894707,0.1,0,99
19,811,100,0.022762015727368384,0.1,0,99
19,812,200_null,0.04552403145473677,0.1,0,99
19,813,400,0.09104806290947354,0.1,0,99
19,814,000,0,0.1,0,99
19,815,400,0.09104806290947354,0.1,0,99
19,816,100,0.022762015727368384,0.1,0,99
19,817,200,0.04552403145473677,0.1,0,99
19,818,000,0,0.1,0,99
19,819,800,0.18209612581894707,0.1,0,99
19,820,800_null,0.18209612581894707,0.1,0,99
19,821,200,0.04552403145473677,0.1,0,99
19,822,400,0.09104806290947354,0.1,0,99
19,823,100_null,0.022762015727368384,0.1,0,99
19,824,000,0,0.1,0,99
19,825,000,0,0.1,0,99
19,826,100,0.022762015727368384,0.1,0,99
19,827,800,0.18209612581894707,0.1,0,99
19,828,200,0.04552403145473677,0.1,0,99
19,829,400_null,0.09104806290947354,0.1,0,99
19,830,000,0,0.1,0,99
19,831,400,0.09104806290947354,0.1,0,99
19,832,100_null,0.022762015727368384,0.1,0,99
19,833,800,0.18209612581894707,0.1,0,99
19,834,200,0.04552403145473677,0.1,0,99
19,835,400,0.09104806290947354,0.1,0,99
19,836,200,0.04552403145473677,0.1,0,99
19,837,800_null,0.18209612581894707,0.1,0,99
19,838,000,0,0.1,0,99
19,839,100,0.022762015727368384,0.1,0,99
19,840,000,0,0.1,0,99
19,841,100,0.022762015727368384,0.1,0,99
19,842,800,0.18209612581894707,0.1,0,99
19,843,200,0.04552403145473677,0.1,0,99
19,844,400,0.09104806290947354,0.1,0,99
19,845,200,0.04552403145473677,0.1,0,99
19,846,800,0.18209612581894707,0.1,0,99
19,847,000,0,0.1,0,99
19,848,100,0.022762015727368384,0.1,0,99
19,849,400,0.09104806290947354,0.1,0,99
19,850,400,0.09104806290947354,0.1,0,99
19,851,000,0,0.1,0,99
19,852,200_null,0.04552403145473677,0.1,0,99
19,853,100,0.022762015727368384,0.1,0,99
19,854,800,0.18209612581894707,0.1,0,99
19,855,400,0.09104806290947354,0.1,0,99
19,856,100,0.022762015727368384,0.1,0,99
19,857,800_null,0.18209612581894707,0.1,0,99
19,858,000,0,0.1,0,99
19,859,200,0.04552403145473677,0.1,0,99
19,860,200,0.04552403145473677,0.1,0,99
19,861,800,0.18209612581894707,0.1,0,99
19,862,000,0,0.1,0,99
19,863,400,0.09104806290947354,0.1,0,99
19,864,100,0.022762015727368384,0.1,0,99
19,865,100,0.022762015727368384,0.1,0,99
19,866,200,0.04552403145473677,0.1,0,99
19,867,800,0.18209612581894707,0.1,0,99
19,868,000,0,0.1,0,99
19,869,400,0.09104806290947354,0.1,0,99
19,870,200_null,0.04552403145473677,0.1,0,99
19,871,400,0.09104806290947354,0.1,0,99
19,872,800,0.18209612581894707,0.1,0,99
19,873,000,0,0.1,0,99
19,874,100,0.022762015727368384,0.1,0,99
19,875,200_null,0.04552403145473677,0.1,0,99
19,876,400,0.09104806290947354,0.1,0,99
19,877,100,0.022762015727368384,0.1,0,99
19,878,800,0.18209612581894707,0.1,0,99
19,879,000,0,0.1,0,99
19,880,000,0,0.1,0,99
19,881,800,0.18209612581894707,0.1,0,99
19,882,100,0.022762015727368384,0.1,0,99
19,883,200,0.04552403145473677,0.1,0,99
19,884,400,0.09104806290947354,0.1,0,99
19,885,800,0.18209612581894707,0.1,0,99
19,886,400,0.09104806290947354,0.1,0,99
19,887,100,0.022762015727368384,0.1,0,99
19,888,200,0.04552403145473677,0.1,0,99
19,889,000,0,0.1,0,99
19,890,800,0.18209612581894707,0.1,0,99
19,891,000,0,0.1,0,99
19,892,100,0.022762015727368384,0.1,0,99
19,893,400,0.09104806290947354,0.1,0,99
19,894,200,0.04552403145473677,0.1,0,99
19,895,000_null,0,0.1,0,99
19,896,100,0.022762015727368384,0.1,0,99
19,897,400,0.09104806290947354,0.1,0,99
19,898,200,0.04552403145473677,0.1,0,99
19,899,800,0.18209612581894707,0.1,0,99
19,900,200,0.04552403145473677,0.1,0,99
19,901,400,0.09104806290947354,0.1,0,99
19,902,000,0,0.1,0,99
19,903,800,0.18209612581894707,0.1,0,99
19,904,100,0.022762015727368384,0.1,0,99
19,905,100,0.022762015727368384,0.1,0,99
19,906,800,0.18209612581894707,0.1,0,99
19,907,400_null,0.09104806290947354,0.1,0,99
19,908,000,0,0.1,0,99
19,909,200,0.04552403145473677,0.1,0,99
19,910,100,0.022762015727368384,0.1,0,99
19,911,200_null,0.04552403145473677,0.1,0,99
19,912,400,0.09104806290947354,0.1,0,99
19,913,800,0.18209612581894707,0.1,0,99
19,914,000,0,0.1,0,99
19,915,100,0.022762015727368384,0.1,0,99
19,916,400,0.09104806290947354,0.1,0,99
19,917,200,0.04552403145473677,0.1,0,99
19,918,000,0,0.1,0,99
19,919,800,0.18209612581894707,0.1,0,99
19,920,800,0.18209612581894707,0.1,0,99
19,921,200,0.04552403145473677,0.1,0,99
19,922,400,0.09104806290947354,0.1,0,99
19,923,100,0.022762015727368384,0.1,0,99
19,924,000_null,0,0.1,0,99
19,925,200,0.04552403145473677,0.1,0,99
19,926,800,0.18209612581894707,0.1,0,99
19,927,100,0.022762015727368384,0.1,0,99
19,928,400,0.09104806290947354,0.1,0,99
19,929,000,0,0.1,0,99
19,930,100,0.022762015727368384,0.1,0,99
19,931,200_null,0.04552403145473677,0.1,0,99
19,932,400,0.09104806290947354,0.1,0,99
19,933,800,0.18209612581894707,0.1,0,99
19,934,000,0,0.1,0,99
19,935,800,0.18209612581894707,0.1,0,99
19,936,400,0.09104806290947354,0.1,0,99
19,937,200,0.04552403145473677,0.1,0,99
19,938,000,0,0.1,0,99
19,939,100,0.022762015727368384,0.1,0,99
19,940,800,0.18209612581894707,0.1,0,99
19,941,400,0.09104806290947354,0.1,0,99
19,942,000_null,0,0.1,0,99
19,943,200,0.04552403145473677,0.1,0,99
19,944,100,0.022762015727368384,0.1,0,99
19,945,100,0.022762015727368384,0.1,0,99
19,946,800,0.18209612581894707,0.1,0,99
19,947,000,0,0.1,0,99
19,948,200,0.04552403145473677,0.1,0,99
19,949,400,0.09104806290947354,0.1,0,99
19,950,000,0,0.1,0,99
19,951,100,0.022762015727368384,0.1,0,99
19,952,800,0.18209612581894707,0.1,0,99
19,953,400_null,0.09104806290947354,0.1,0,99
19,954,200,0.04552403145473677,0.1,0,99
19,955,800,0.18209612581894707,0.1,0,99
19,956,400,0.09104806290947354,0.1,0,99
19,957,100,0.022762015727368384,0.1,0,99
19,958,000,0,0.1,0,99
19,959,200_null,0.04552403145473677,0.1,0,99
19,960,400,0.09104806290947354,0.1,0,99
19,961,100,0.022762015727368384,0.1,0,99
19,962,000,0,0.1,0,99
19,963,800,0.18209612581894707,0.1,0,99
19,964,200,0.04552403145473677,0.1,0,99
19,965,200,0.04552403145473677,0.1,0,99
19,966,000,0,0.1,0,99
19,967,400,0.09104806290947354,0.1,0,99
19,968,800,0.18209612581894707,0.1,0,99
19,969,100,0.022762015727368384,0.1,0,99
19,970,100,0.022762015727368384,0.1,0,99
19,971,800,0.18209612581894707,0.1,0,99
19,972,000,0,0.1,0,99
19,973,200,0.04552403145473677,0.1,0,99
19,974,400,0.09104806290947354,0.1,0,99
19,975,100,0.022762015727368384,0.1,0,99
19,976,800,0.18209612581894707,0.1,0,99
19,977,000,0,0.1,0,99
19,978,400,0.09104806290947354,0.1,0,99
19,979,200,0.04552403145473677,0.1,0,99
19,980,800,0.18209612581894707,0.1,0,99
19,981,000,0,0.1,0,99
19,982,100,0.022762015727368384,0.1,0,99
19,983,200,0.04552403145473677,0.1,0,99
19,984,400,0.09104806290947354,0.1,0,99
19,985,000,0,0.1,0,99
19,986,200,0.04552403145473677,0.1,0,99
19,987,800,0.18209612581894707,0.1,0,99
19,988,100,0.022762015727368384,0.1,0,99
19,989,400,0.09104806290947354,0.1,0,99
19,990,400,0.09104806290947354,0.1,0,99
19,991,100,0.022762015727368384,0.1,0,99
19,992,800,0.18209612581894707,0.1,0,99
19,993,200_null,0.04552403145473677,0.1,0,99
19,994,000,0,0.1,0,99
19,995,800,0.18209612581894707,0.1,0,99
19,996,400,0.09104806290947354,0.1,0,99
19,997,200,0.04552403145473677,0.1,0,99
19,998,000,0,0.1,0,99
19,999,100,0.022762015727368384,0.1,0,99
19,1000,200,0.04552403145473677,0.1,0,99
19,1001,100,0.022762015727368384,0.1,0,99
19,1002,000,0,0.1,0,99
19,1003,400,0.09104806290947354,0.1,0,99
19,1004,800,0.18209612581894707,0.1,0,99
19,1005,800_null,0.18209612581894707,0.1,0,99
19,1006,000,0,0.1,1,0.4255188309762161
19,1007,400,0.09104806290947354,0.1,1,0.3900714569899719
19,1008,200,0.04552403145473677,0.1,0,99
19,1009,100,0.022762015727368384,0.1,1,0.19207263097632676
19,1010,800,0.18209612581894707,0.1,1,0.2713430770090781
19,1011,200,0.04552403145473677,0.1,0,99
19,1012,200,0.04552403145473677,0.1,0,99
19,1013,200,0.04552403145473677,0.1,0,99
19,1014,200,0.04552403145473677,0.1,0,99
19,1015,200,0.04552403145473677,0.1,0,99
19,1016,200,0.04552403145473677,0.1,0,99
19,1017,200,0.04552403145473677,0.1,0,99
19,1018,200,0.04552403145473677,0.1,0,99
19,1019,200,0.04552403145473677,0.1,0,99
19,1020,200,0.04552403145473677,0.1,0,99
19,1021,200,0.04552403145473677,0.1,0,99
19,1022,200,0.04552403145473677,0.1,0,99
19,1023,200,0.04552403145473677,0.1,0,99
19,1024,200,0.04552403145473677,0.1,0,99
19,1025,200,0.04552403145473677,0.1,0,99
19,1026,200,0.04552403145473677,0.1,0,99
19,1027,200,0.04552403145473677,0.1,0,99
19,1028,200,0.04552403145473677,0.1,0,99
19,1029,200,0.04552403145473677,0.1,0,99
19,1030,200,0.04552403145473677,0.1,0,99
19,1031,200,0.04552403145473677,0.1,0,99
19,1032,200,0.04552403145473677,0.1,0,99
19,1033,200,0.04552403145473677,0.1,0,99
19,1034,200,0.04552403145473677,0.1,0,99
19,1035,200,0.04552403145473677,0.1,0,99
19,1036,200,0.04552403145473677,0.1,0,99
19,1037,200,0.04552403145473677,0.1,0,99
19,1038,200,0.04552403145473677,0.1,0,99
19,1039,200,0.04552403145473677,0.1,0,99
19,1040,200_null,0.04552403145473677,0.1,0,99
19,1041,200,0.04552403145473677,0.1,0,99
19,1042,200,0.04552403145473677,0.1,0,99
19,1043,200,0.04552403145473677,0.1,0,99
19,1044,200,0.04552403145473677,0.1,0,99
19,1045,200,0.04552403145473677,0.1,0,99
19,1046,200,0.04552403145473677,0.1,0,99
19,1047,200,0.04552403145473677,0.1,0,99
19,1048,200,0.04552403145473677,0.1,0,99
19,1049,200,0.04552403145473677,0.1,0,99
19,1050,200,0.04552403145473677,0.1,0,99
19,1051,200,0.04552403145473677,0.1,0,99
19,1052,200,0.04552403145473677,0.1,0,99
19,1053,200,0.04552403145473677,0.1,0,99
19,1054,200,0.04552403145473677,0.1,0,99
19,1055,200,0.04552403145473677,0.1,0,99
19,1056,200,0.04552403145473677,0.1,0,99
19,1057,200,0.04552403145473677,0.1,0,99
19,1058,200,0.04552403145473677,0.1,0,99
19,1059,200,0.04552403145473677,0.1,0,99
19,1060,200,0.04552403145473677,0.1,0,99
19,1061,200,0.04552403145473677,0.1,0,99
19,1062,200,0.04552403145473677,0.1,0,99
19,1063,200,0.04552403145473677,0.1,0,99
19,1064,200_null,0.04552403145473677,0.1,0,99
19,1065,200,0.04552403145473677,0.1,0,99
19,1066,200,0.04552403145473677,0.1,0,99
19,1067,200,0.04552403145473677,0.1,0,99
19,1068,200,0.04552403145473677,0.1,0,99
19,1069,200,0.04552403145473677,0.1,0,99
19,1070,200_null,0.04552403145473677,0.1,0,99
19,1071,200,0.04552403145473677,0.1,0,99
19,1072,200_null,0.04552403145473677,0.1,0,99
19,1073,200,0.04552403145473677,0.1,0,99
19,1074,200,0.04552403145473677,0.1,0,99
19,1075,200,0.04552403145473677,0.1,0,99
19,1076,200,0.04552403145473677,0.1,0,99
19,1077,200,0.04552403145473677,0.1,0,99
19,1078,200,0.04552403145473677,0.1,0,99
19,1079,200,0.04552403145473677,0.1,0,99
19,1080,200_null,0.04552403145473677,0.1,0,99
19,1081,200,0.04552403145473677,0.1,0,99
19,1082,200,0.04552403145473677,0.1,0,99
19,1083,200,0.04552403145473677,0.1,0,99
19,1084,200_null,0.04552403145473677,0.1,0,99
19,1085,200,0.04552403145473677,0.1,0,99
19,1086,200_null,0.04552403145473677,0.1,0,99
19,1087,200,0.04552403145473677,0.1,0,99
19,1088,200,0.04552403145473677,0.1,0,99
19,1089,200,0.04552403145473677,0.1,0,99
19,1090,200_null,0.04552403145473677,0.1,0,99
19,1091,200,0.04552403145473677,0.1,0,99
19,1092,200,0.04552403145473677,0.1,0,99
19,1093,200,0.04552403145473677,0.1,0,99
19,1094,200_null,0.04552403145473677,0.1,0,99
19,1095,200,0.04552403145473677,0.1,0,99
19,1096,200_null,0.04552403145473677,0.1,0,99
19,1097,200,0.04552403145473677,0.1,0,99
19,1098,200,0.04552403145473677,0.1,0,99
19,1099,200_null,0.04552403145473677,0.1,0,99
19,1100,200,0.04552403145473677,0.1,0,99
19,1101,200,0.04552403145473677,0.1,0,99
19,1102,200,0.04552403145473677,0.1,0,99
19,1103,200,0.04552403145473677,0.1,0,99
19,1104,200,0.04552403145473677,0.1,0,99
19,1105,200,0.04552403145473677,0.1,0,99
19,1106,200,0.04552403145473677,0.1,0,99
19,1107,200,0.04552403145473677,0.1,0,99
19,1108,200,0.04552403145473677,0.1,0,99
19,1109,200,0.04552403145473677,0.1,0,99
19,1110,200,0.04552403145473677,0.1,0,99
19,1111,200,0.04552403145473677,0.1,0,99
19,1112,200_null,0.04552403145473677,0.1,0,99
19,1113,200,0.04552403145473677,0.1,0,99
19,1114,200,0.04552403145473677,0.1,0,99
19,1115,200,0.04552403145473677,0.1,0,99
19,1116,200_null,0.04552403145473677,0.1,0,99
19,1117,200,0.04552403145473677,0.1,0,99
19,1118,200,0.04552403145473677,0.1,0,99
19,1119,200,0.04552403145473677,0.1,0,99
19,1120,200,0.04552403145473677,0.1,0,99
19,1121,200,0.04552403145473677,0.1,0,99
19,1122,200,0.04552403145473677,0.1,0,99
19,1123,200,0.04552403145473677,0.1,0,99
19,1124,200_null,0.04552403145473677,0.1,0,99
19,1125,200,0.04552403145473677,0.1,0,99
19,1126,200,0.04552403145473677,0.1,0,99
19,1127,200,0.04552403145473677,0.1,0,99
19,1128,200,0.04552403145473677,0.1,0,99
19,1129,200,0.04552403145473677,0.1,0,99
19,1130,200,0.04552403145473677,0.1,0,99
19,1131,200,0.04552403145473677,0.1,0,99
19,1132,200,0.04552403145473677,0.1,0,99
19,1133,200,0.04552403145473677,0.1,0,0.807657619996462
19,1134,200,0.04552403145473677,0.1,1,0.1719238540099468
