id,trial,label,FC,TC,response,RT
114,0,baseline,0,0.1,0,99
114,1,baseline,0,0.1,0,0.17014671499964606
114,2,baseline,0,0.1,1,0.2804782269995485
114,3,baseline_null,0,0.07943282347242815,0,99
114,4,baseline,0,0.07943282347242815,0,99
114,5,baseline,0,0.1,1,0.44856858999992255
114,6,baseline,0,0.07943282347242815,0,99
114,7,baseline,0,0.1,1,0.4586581029998342
114,8,baseline,0,0.07943282347242815,1,0.44167424399893207
114,9,baseline,0,0.06309573444801932,1,0.41450068700032716
114,10,baseline,0,0.05011872336272722,1,0.34125680000033753
114,11,baseline,0,0.03981071705534971,0,99
114,12,baseline,0,0.05011872336272721,0,99
114,13,baseline,0,0.0630957344480193,1,0.6232438600000023
114,14,baseline,0,0.050118723362727206,0,0.6243559829999867
114,15,baseline,0,0.0630957344480193,1,0.35760715500146034
114,16,baseline,0,0.050118723362727206,1,0.6212948320007854
114,17,baseline,0,0.039810717055349706,1,0.5947677759995713
114,18,baseline,0,0.03162277660168378,0,1.08247992699944
114,19,baseline,0,0.039810717055349706,0,0.8944479649999266
114,20,baseline,0,0.050118723362727206,0,0.8213460429997212
114,21,baseline,0,0.0630957344480193,1,0.500140066998938
114,22,baseline_null,0,0.050118723362727206,0,0.7406550510004308
114,23,baseline,0,0.050118723362727206,1,0.470494047000102
114,24,baseline,0,0.039810717055349706,1,0.3969677099994442
114,25,baseline_null,0,0.03162277660168378,0,0.9142672329999186
114,26,baseline,0,0.03162277660168378,1,0.5690168099990842
114,27,baseline,0,0.025118864315095787,0,99
114,28,baseline,0,0.03162277660168378,0,0.3502898059996369
114,29,baseline,0,0.039810717055349706,1,0.4205977259989595
114,30,baseline,0,0.03162277660168378,0,0.9647925020017283
114,31,baseline,0,0.039810717055349706,0,0.8763017430010223
114,32,baseline,0,0.050118723362727206,0,0.9376035999994201
114,33,baseline,0,0.0630957344480193,1,0.6310590730008698
114,34,baseline,0,0.050118723362727206,1,0.693364537000889
114,35,baseline,0,0.039810717055349706,0,0.8462695680009347
114,36,baseline,0,0.050118723362727206,0,0.800801273999241
114,37,baseline,0,0.0630957344480193,0,0.928148422999584
114,38,baseline,0,0.07943282347242812,1,0.7181892009994044
114,39,baseline,0,0.0630957344480193,1,0.6984406479987229
114,40,baseline,0,0.050118723362727206,0,0.8327772159991582
114,41,baseline,0,0.0630957344480193,1,0.3348590379991947
114,42,baseline,0,0.050118723362727206,0,0.44465647699871624
114,43,baseline,0,0.0630957344480193,1,0.31587200700050744
114,44,baseline,0,0.050118723362727206,1,0.36266148799950315
114,45,baseline,0,0.039810717055349706,1,0.5206759819993749
114,46,baseline,0,0.03162277660168378,1,0.5757376919991657
114,47,baseline,0,0.025118864315095787,1,0.6154799969990563
114,48,baseline,0,0.019952623149688785,0,0.6137407029982569
114,49,baseline,0,0.025118864315095787,0,1.2467722309993405
114,50,baseline,0,0.03162277660168378,1,0.5864135900010297
114,51,baseline,0,0.025118864315095787,0,0.545630116999746
114,52,baseline,0,0.03162277660168378,1,0.6617126780001854
114,53,baseline,0,0.025118864315095787,1,0.7157007309997425
114,54,baseline,0,0.019952623149688785,0,0.5307328520011652
114,55,baseline,0,0.025118864315095787,1,0.9589567090006312
114,56,baseline,0,0.019952623149688785,1,0.7008159100005287
114,57,baseline,0,0.015848931924611124,0,0.747900178999771
114,58,baseline,0,0.019952623149688785,0,0.7378944730007788
114,59,baseline,0,0.025118864315095787,1,0.6160724510009459
114,60,baseline,0,0.019952623149688785,1,0.7512025829983031
114,61,baseline,0,0.015848931924611124,0,0.6454567839991796
114,62,baseline,0,0.019952623149688785,0,0.5157737749996159
114,63,baseline_null,0,0.025118864315095787,0,0.7313422639999771
114,64,baseline,0,0.025118864315095787,0,0.6589403100006166
114,65,baseline,0,0.03162277660168378,1,0.6102856540001085
114,66,baseline,0,0.025118864315095787,0,0.49489067399917985
114,67,baseline,0,0.03162277660168378,0,0.9101978729995608
114,68,baseline_null,0,0.039810717055349706,0,1.0043282879996696
114,69,baseline,0,0.039810717055349706,1,0.6084178299988707
114,70,baseline,0,0.03162277660168378,0,0.5516761220005719
114,71,baseline,0,0.039810717055349706,1,0.7709168969995517
114,72,baseline_null,0,0.03162277660168378,0,0.6975041069999861
114,73,baseline,0,0.03162277660168378,1,0.4564192430007097
114,74,baseline,0,0.025118864315095787,1,0.558213374000843
114,75,baseline,0,0.019952623149688785,1,0.3733898490008869
114,76,baseline_null,0,0.015848931924611124,0,0.6436543970012281
114,77,baseline,0,0.015848931924611124,0,0.6101693030013848
114,78,baseline,0,0.019952623149688785,0,0.7610800179991202
114,79,baseline,0,0.025118864315095787,0,0.5919005180003296
114,80,baseline,0,0.03162277660168378,0,0.7353442339990579
114,81,baseline,0,0.039810717055349706,1,0.366833587999281
114,82,baseline,0,0.03162277660168378,1,0.6211882019997574
114,83,baseline,0,0.025118864315095787,1,0.7226380150004843
114,84,baseline,0,0.019952623149688785,0,0.5525259170008212
114,85,baseline,0,0.025118864315095787,0,0.6210610689995519
114,86,baseline,0,0.03162277660168378,1,0.6031521860004432
114,87,baseline,0,0.025118864315095787,0,0.6899650810009916
114,88,baseline,0,0.03162277660168378,1,0.8141169270002138
114,89,baseline,0,0.025118864315095787,1,0.9173109889998159
114,90,baseline,0,0.019952623149688785,0,0.787450436000654
114,91,baseline,0,0.025118864315095787,0,0.4901823050004168
114,92,baseline,0,0.03162277660168378,0,0.7361342800013517
114,93,baseline,0,0.039810717055349706,1,0.5993029780001962
114,94,baseline,0,0.03162277660168378,1,0.6697621069997695
114,95,baseline,0,0.025118864315095787,1,0.7801621729995531
114,96,baseline,0,0.019952623149688785,1,1.1794989840000198
114,97,baseline,0,0.015848931924611124,0,99
114,98,baseline,0,0.019952623149688785,0,99
114,99,baseline,0,0.025118864315095787,0,0.27809548400000494
114,100,baseline,0,0.03162277660168378,1,0.6850391719999607
114,101,baseline,0,0.025118864315095787,1,0.7521328980001272
114,102,baseline,0,0.019952623149688785,1,1.271193252001467
114,103,baseline,0,0.015848931924611124,0,0.6860037440001179
114,104,baseline,0,0.019952623149688785,0,0.49002192500120145
114,105,baseline,0,0.025118864315095787,0,0.47249971000019286
114,106,baseline,0,0.03162277660168378,1,0.7433580469987646
114,107,baseline,0,0.025118864315095787,0,99
114,108,baseline,0,0.03162277660168378,0,0.16350186399904487
114,109,baseline,0,0.039810717055349706,1,0.39433159899999737
114,110,baseline,0,0.03162277660168378,1,0.6975278129993967
114,111,baseline,0,0.025118864315095787,0,99
114,112,baseline,0,0.03162277660168378,1,0.6378459549996478
114,113,baseline,0,0.025118864315095787,1,0.7173848519996682
114,114,baseline,0,0.019952623149688785,0,99
114,115,baseline,0,0.025118864315095787,0,0.5603199589986616
114,116,baseline,0,0.03162277660168378,1,0.5994108100003359
114,117,baseline,0,0.025118864315095787,0,0.5259966920002626
114,118,baseline,0,0.03162277660168378,1,0.6742951630003517
114,119,baseline,0,0.025118864315095787,1,0.5603794940016087
